submission_id,QUD,RT,age,b1,b2,comments,education,endTime,experiment_id,gender,languages,optionLeft,optionRight,p1,p2,picture,question,question1,question2,question3,question4,response,startDate,startTime,timeSpent,trial_name,trial_number,utterances,participant_id
568,NA,102438,50,280|140||80,425|160|80|40,NA,Higher Degree,1580407021187,13,female,English,NA,NA,250|230|50|100,462.5|230|75|100,NA,NA,NA,NA,NA,NA,13|30|23|80,Thu Jan 30 2020 17:43:02 GMT+0000 (GMT Standard Time),1580406182705,13.9747,train1,1,g|gb|b|bg,participant1
568,NA,39445,50,292.5|40||80,442.5|140|40|80,NA,Higher Degree,1580407021187,13,female,English,NA,NA,212.5|180|150|200,512.5|230|150|100,NA,NA,NA,NA,NA,NA,81|82|93|87,Thu Jan 30 2020 17:43:02 GMT+0000 (GMT Standard Time),1580406182705,13.9747,train2,2,gb|b|g|bg,participant1
568,NA,39738,50,398.7550029259096|60||80,383.09295158057535|140|40|80,NA,Higher Degree,1580407021187,13,female,English,NA,NA,362.5|230|150|100,NA,NA,NA,NA,NA,NA,NA,9|94|72|16,Thu Jan 30 2020 17:43:02 GMT+0000 (GMT Standard Time),1580406182705,13.9747,train3,3,g|gb|bg|b,participant1
568,NA,33952,50,440.04992640352276|138.33333333333331||40,403.6039326750373|178.33333333333331|80|40,NA,Higher Degree,1580407021187,13,female,English,NA,NA,seesaw,NA,NA,NA,NA,NA,NA,NA,71|92|82|97,Thu Jan 30 2020 17:43:02 GMT+0000 (GMT Standard Time),1580406182705,13.9747,train4,4,g|gb|b|bg,participant1
568,How acceptable is the utterance below as an informative description of the picture?,10935|17448|22462|28526,50,292.5|140|40|80,437.5|140|40|80,NA,Higher Degree,1580407021187,13,female,English,completely inacceptable,completely acceptable,362.5|230|150|100,NA,images/group2/S57-1007.jpg,NA,The <b>blue</b> block <b>will</b> touch the ground.,"If the <b>blue</b> block <b>will</b> touch the ground, the <b>green</b> block <b>will</b> also touch the ground.",The <b>green</b> block <b>will</b> touch the ground.,"If the <b>green</b> block <b>will</b> touch the ground, the <b>blue</b> block <b>will</b> also touch the ground.",11|86|47|84,Thu Jan 30 2020 17:43:02 GMT+0000 (GMT Standard Time),1580406182705,13.9747,slider_main,1,b|bg|g|gb,participant1
568,How acceptable is the utterance below as an informative description of the picture?,6138|10027|13570|19074,50,292.5|40|40|80,432.5|40|40|80,NA,Higher Degree,1580407021187,13,female,English,completely inacceptable,completely acceptable,250|180|75|200,475|180|75|200,images/group2/S1-121.jpg,NA,The <b>blue</b> block <b>will</b> touch the ground.,"If the <b>green</b> block <b>will</b> touch the ground, the <b>blue</b> block <b>will</b> also touch the ground.",The <b>green</b> block <b>will</b> touch the ground.,"If the <b>blue</b> block <b>will</b> touch the ground, the <b>green</b> block <b>will</b> also touch the ground.",83|89|81|82,Thu Jan 30 2020 17:43:02 GMT+0000 (GMT Standard Time),1580406182705,13.9747,slider_main,2,b|gb|g|bg,participant1
568,How acceptable is the utterance below as an informative description of the picture?,10369|15567|19040|21639,50,377.5|120|80|40,347.5|160|80|40,NA,Higher Degree,1580407021187,13,female,English,completely inacceptable,completely acceptable,362.5|230|150|100,NA,images/group2/S30-805-dep.jpg,NA,"If the <b>blue</b> block <b>will</b> touch the ground, the <b>green</b> block <b>will</b> also touch the ground.","If the <b>green</b> block <b>will</b> touch the ground, the <b>blue</b> block <b>will</b> also touch the ground.",The <b>green</b> block <b>will</b> touch the ground.,The <b>blue</b> block <b>will</b> touch the ground.,78|24|79|15,Thu Jan 30 2020 17:43:02 GMT+0000 (GMT Standard Time),1580406182705,13.9747,slider_main,3,bg|gb|g|b,participant1
568,How acceptable is the utterance below as an informative description of the picture?,16080|20194|40475|44905,50,252.5|178.33333333333331|80|40,472.5|178.33333333333331|80|40,NA,Higher Degree,1580407021187,13,female,English,completely inacceptable,completely acceptable,seesaw,NA,images/group2/S7-130-dep.jpg,NA,"If the <b>green</b> block <b>will</b> touch the ground, the <b>blue</b> block <b>will</b> also touch the ground.",The <b>green</b> block <b>will</b> touch the ground.,The <b>blue</b> block <b>will</b> touch the ground.,"If the <b>blue</b> block <b>will</b> touch the ground, the <b>green</b> block <b>will</b> also touch the ground.",83|78|77|80,Thu Jan 30 2020 17:43:02 GMT+0000 (GMT Standard Time),1580406182705,13.9747,slider_main,4,gb|g|b|bg,participant1
568,How acceptable is the utterance below as an informative description of the picture?,32452|37334|45485|48838,50,282.5|140|40|80,437.5|160|80|40,NA,Higher Degree,1580407021187,13,female,English,completely inacceptable,completely acceptable,250|230|75|100,475|230|75|100,images/group2/S55-1006.jpg,NA,The <b>blue</b> block <b>will</b> touch the ground.,"If the <b>blue</b> block <b>will</b> touch the ground, the <b>green</b> block <b>will</b> also touch the ground.","If the <b>green</b> block <b>will</b> touch the ground, the <b>blue</b> block <b>will</b> also touch the ground.",The <b>green</b> block <b>will</b> touch the ground.,51|21|80|19,Thu Jan 30 2020 17:43:02 GMT+0000 (GMT Standard Time),1580406182705,13.9747,slider_main,5,b|bg|gb|g,participant1
568,How acceptable is the utterance below as an informative description of the picture?,5262|8558|12366|14885,50,320|140|40|80,400|140|40|80,NA,Higher Degree,1580407021187,13,female,English,completely inacceptable,completely acceptable,300|230|50|100,425|230|50|100,images/group2/S63-1039.jpg,NA,"If the <b>blue</b> block <b>will</b> touch the ground, the <b>green</b> block <b>will</b> also touch the ground.",The <b>blue</b> block <b>will</b> touch the ground.,"If the <b>green</b> block <b>will</b> touch the ground, the <b>blue</b> block <b>will</b> also touch the ground.",The <b>green</b> block <b>will</b> touch the ground.,83|79|82|75,Thu Jan 30 2020 17:43:02 GMT+0000 (GMT Standard Time),1580406182705,13.9747,slider_main,6,bg|b|gb|g,participant1
568,How acceptable is the utterance below as an informative description of the picture?,5646|10095|13849|18007,50,250|160|80|40,400|40|40|80,NA,Higher Degree,1580407021187,13,female,English,completely inacceptable,completely acceptable,287.5|230|75|100,437.5|180|75|200,images/group2/S93-1674.jpg,NA,The <b>green</b> block <b>will</b> touch the ground.,"If the <b>blue</b> block <b>will</b> touch the ground, the <b>green</b> block <b>will</b> also touch the ground.","If the <b>green</b> block <b>will</b> touch the ground, the <b>blue</b> block <b>will</b> also touch the ground.",The <b>blue</b> block <b>will</b> touch the ground.,73|84|83|76,Thu Jan 30 2020 17:43:02 GMT+0000 (GMT Standard Time),1580406182705,13.9747,slider_main,7,g|bg|gb|b,participant1
568,How acceptable is the utterance below as an informative description of the picture?,5191|8856|11607|20588,50,262.5|178.33333333333331|80|40,462.5|178.33333333333331|80|40,NA,Higher Degree,1580407021187,13,female,English,completely inacceptable,completely acceptable,seesaw,NA,images/group2/S89-1642-dep.jpg,NA,The <b>blue</b> block <b>will</b> touch the ground.,The <b>green</b> block <b>will</b> touch the ground.,"If the <b>green</b> block <b>will</b> touch the ground, the <b>blue</b> block <b>will</b> also touch the ground.","If the <b>blue</b> block <b>will</b> touch the ground, the <b>green</b> block <b>will</b> also touch the ground.",78|82|75|83,Thu Jan 30 2020 17:43:02 GMT+0000 (GMT Standard Time),1580406182705,13.9747,slider_main,8,b|g|gb|bg,participant1
568,How acceptable is the utterance below as an informative description of the picture?,11231|13695|16279|20879,50,282.5|140|40|80,442.5|140|40|80,NA,Higher Degree,1580407021187,13,female,English,completely inacceptable,completely acceptable,362.5|230|150|100,NA,images/group2/S7-130.jpg,NA,"If the <b>blue</b> block <b>will</b> touch the ground, the <b>green</b> block <b>will</b> also touch the ground.","If the <b>green</b> block <b>will</b> touch the ground, the <b>blue</b> block <b>will</b> also touch the ground.",The <b>blue</b> block <b>will</b> touch the ground.,The <b>green</b> block <b>will</b> touch the ground.,75|72|80|77,Thu Jan 30 2020 17:43:02 GMT+0000 (GMT Standard Time),1580406182705,13.9747,slider_main,9,bg|gb|b|g,participant1
568,How acceptable is the utterance below as an informative description of the picture?,12007|16943|19559|23783,50,335|160|80|40,375|100|40|80,NA,Higher Degree,1580407021187,13,female,English,completely inacceptable,completely acceptable,362.5|230|75|100,NA,images/group2/S59-1007.jpg,NA,"If the <b>blue</b> block <b>will</b> touch the ground, the <b>green</b> block <b>will</b> also touch the ground.","If the <b>green</b> block <b>will</b> touch the ground, the <b>blue</b> block <b>will</b> also touch the ground.",The <b>blue</b> block <b>will</b> touch the ground.,The <b>green</b> block <b>will</b> touch the ground.,32|87|81|39,Thu Jan 30 2020 17:43:02 GMT+0000 (GMT Standard Time),1580406182705,13.9747,slider_main,10,bg|gb|b|g,participant1
568,How acceptable is the utterance below as an informative description of the picture?,7599|10528|12467|15683,50,408.5|154.33333333333331|80|40,328.5|154.33333333333331|80|40,NA,Higher Degree,1580407021187,13,female,English,completely inacceptable,completely acceptable,seesaw,NA,images/group2/S97-1674.jpg,NA,"If the <b>green</b> block <b>will</b> touch the ground, the <b>blue</b> block <b>will</b> also touch the ground.",The <b>green</b> block <b>will</b> touch the ground.,"If the <b>blue</b> block <b>will</b> touch the ground, the <b>green</b> block <b>will</b> also touch the ground.",The <b>blue</b> block <b>will</b> touch the ground.,85|79|80|81,Thu Jan 30 2020 17:43:02 GMT+0000 (GMT Standard Time),1580406182705,13.9747,slider_main,11,gb|g|bg|b,participant1
568,How acceptable is the utterance below as an informative description of the picture?,6110|11174|13502|15902,50,292.5|40|40|80,437.5|40|40|80,NA,Higher Degree,1580407021187,13,female,English,completely inacceptable,completely acceptable,250|180|75|200,475|180|75|200,images/group2/S15-443.jpg,NA,The <b>blue</b> block <b>will</b> touch the ground.,"If the <b>blue</b> block <b>will</b> touch the ground, the <b>green</b> block <b>will</b> also touch the ground.","If the <b>green</b> block <b>will</b> touch the ground, the <b>blue</b> block <b>will</b> also touch the ground.",The <b>green</b> block <b>will</b> touch the ground.,41|85|83|37,Thu Jan 30 2020 17:43:02 GMT+0000 (GMT Standard Time),1580406182705,13.9747,slider_main,12,b|bg|gb|g,participant1
568,How acceptable is the utterance below as an informative description of the picture?,5526|7327|9758|12487,50,287.5|140|40|80,437.5|140|40|80,NA,Higher Degree,1580407021187,13,female,English,completely inacceptable,completely acceptable,362.5|230|150|100,NA,images/group2/S89-1642.jpg,NA,The <b>blue</b> block <b>will</b> touch the ground.,The <b>green</b> block <b>will</b> touch the ground.,"If the <b>blue</b> block <b>will</b> touch the ground, the <b>green</b> block <b>will</b> also touch the ground.","If the <b>green</b> block <b>will</b> touch the ground, the <b>blue</b> block <b>will</b> also touch the ground.",65|67|70|71,Thu Jan 30 2020 17:43:02 GMT+0000 (GMT Standard Time),1580406182705,13.9747,slider_main,13,b|g|bg|gb,participant1
568,How acceptable is the utterance below as an informative description of the picture?,5759|7958|12567|15030,50,370|100|40|80,335|160|80|40,NA,Higher Degree,1580407021187,13,female,English,completely inacceptable,completely acceptable,362.5|230|75|100,NA,images/group2/S44-806.jpg,NA,"If the <b>blue</b> block <b>will</b> touch the ground, the <b>green</b> block <b>will</b> also touch the ground.","If the <b>green</b> block <b>will</b> touch the ground, the <b>blue</b> block <b>will</b> also touch the ground.",The <b>blue</b> block <b>will</b> touch the ground.,The <b>green</b> block <b>will</b> touch the ground.,88|80|28|91,Thu Jan 30 2020 17:43:02 GMT+0000 (GMT Standard Time),1580406182705,13.9747,slider_main,14,bg|gb|b|g,participant1
568,How acceptable is the utterance below as an informative description of the picture?,3040|6184|8183|10687,50,317.5|140|40|80,417.5|140|40|80,NA,Higher Degree,1580407021187,13,female,English,completely inacceptable,completely acceptable,237.5|230|150|100,487.5|230|150|100,images/group2/S8-202.jpg,NA,"If the <b>green</b> block <b>will</b> touch the ground, the <b>blue</b> block <b>will</b> also touch the ground.","If the <b>blue</b> block <b>will</b> touch the ground, the <b>green</b> block <b>will</b> also touch the ground.",The <b>blue</b> block <b>will</b> touch the ground.,The <b>green</b> block <b>will</b> touch the ground.,92|88|92|85,Thu Jan 30 2020 17:43:02 GMT+0000 (GMT Standard Time),1580406182705,13.9747,slider_main,15,gb|bg|b|g,participant1
568,How acceptable is the utterance below as an informative description of the picture?,4080|5692|7924|11756,50,362.5|138.33333333333331|80|40,362.5|178.33333333333331|80|40,NA,Higher Degree,1580407021187,13,female,English,completely inacceptable,completely acceptable,seesaw,NA,images/group2/S42-806.jpg,NA,The <b>blue</b> block <b>will</b> touch the ground.,"If the <b>blue</b> block <b>will</b> touch the ground, the <b>green</b> block <b>will</b> also touch the ground.",The <b>green</b> block <b>will</b> touch the ground.,"If the <b>green</b> block <b>will</b> touch the ground, the <b>blue</b> block <b>will</b> also touch the ground.",84|84|84|87,Thu Jan 30 2020 17:43:02 GMT+0000 (GMT Standard Time),1580406182705,13.9747,slider_main,16,b|bg|g|gb,participant1
568,How acceptable is the utterance below as an informative description of the picture?,8054|9574|12861|15166,50,292.5|140|40|80,432.5|140|40|80,NA,Higher Degree,1580407021187,13,female,English,completely inacceptable,completely acceptable,362.5|230|150|100,NA,images/group2/S30-805.jpg,NA,"If the <b>blue</b> block <b>will</b> touch the ground, the <b>green</b> block <b>will</b> also touch the ground.","If the <b>green</b> block <b>will</b> touch the ground, the <b>blue</b> block <b>will</b> also touch the ground.",The <b>blue</b> block <b>will</b> touch the ground.,The <b>green</b> block <b>will</b> touch the ground.,67|70|72|70,Thu Jan 30 2020 17:43:02 GMT+0000 (GMT Standard Time),1580406182705,13.9747,slider_main,17,bg|gb|b|g,participant1
568,How acceptable is the utterance below as an informative description of the picture?,10407|13231|15103|17159,50,282.5|140|40|80,437.5|140|40|80,NA,Higher Degree,1580407021187,13,female,English,completely inacceptable,completely acceptable,362.5|230|150|100,NA,images/group2/S22-468.jpg,NA,"If the <b>green</b> block <b>will</b> touch the ground, the <b>blue</b> block <b>will</b> also touch the ground.",The <b>green</b> block <b>will</b> touch the ground.,"If the <b>blue</b> block <b>will</b> touch the ground, the <b>green</b> block <b>will</b> also touch the ground.",The <b>blue</b> block <b>will</b> touch the ground.,61|66|66|68,Thu Jan 30 2020 17:43:02 GMT+0000 (GMT Standard Time),1580406182705,13.9747,slider_main,18,gb|g|bg|b,participant1
568,How acceptable is the utterance below as an informative description of the picture?,5358|11128|16750|22194,50,287.5|140|40|80,437.5|140|40|80,NA,Higher Degree,1580407021187,13,female,English,completely inacceptable,completely acceptable,212.5|230|150|100,512.5|230|150|100,images/group2/S83-1609.jpg,NA,"If the <b>green</b> block <b>will</b> touch the ground, the <b>blue</b> block <b>will</b> also touch the ground.",The <b>blue</b> block <b>will</b> touch the ground.,The <b>green</b> block <b>will</b> touch the ground.,"If the <b>blue</b> block <b>will</b> touch the ground, the <b>green</b> block <b>will</b> also touch the ground.",81|58|63|92,Thu Jan 30 2020 17:43:02 GMT+0000 (GMT Standard Time),1580406182705,13.9747,slider_main,19,gb|b|g|bg,participant1
568,How acceptable is the utterance below as an informative description of the picture?,9878|15800|20359|24431,50,292.5|40|40|80,437.5|140|40|80,NA,Higher Degree,1580407021187,13,female,English,completely inacceptable,completely acceptable,250|180|75|200,475|230|75|100,images/group2/S20-468.jpg,NA,The <b>green</b> block <b>will</b> touch the ground.,"If the <b>blue</b> block <b>will</b> touch the ground, the <b>green</b> block <b>will</b> also touch the ground.","If the <b>green</b> block <b>will</b> touch the ground, the <b>blue</b> block <b>will</b> also touch the ground.",The <b>blue</b> block <b>will</b> touch the ground.,86|85|84|67,Thu Jan 30 2020 17:43:02 GMT+0000 (GMT Standard Time),1580406182705,13.9747,slider_main,20,g|bg|gb|b,participant1
568,How acceptable is the utterance below as an informative description of the picture?,5255|10151|13903|20167,50,282.5|40|40|80,442.5|140|40|80,NA,Higher Degree,1580407021187,13,female,English,completely inacceptable,completely acceptable,250|180|75|200,475|230|75|100,images/group2/S32-806.jpg,NA,The <b>green</b> block <b>will</b> touch the ground.,"If the <b>green</b> block <b>will</b> touch the ground, the <b>blue</b> block <b>will</b> also touch the ground.",The <b>blue</b> block <b>will</b> touch the ground.,"If the <b>blue</b> block <b>will</b> touch the ground, the <b>green</b> block <b>will</b> also touch the ground.",31|24|33|79,Thu Jan 30 2020 17:43:02 GMT+0000 (GMT Standard Time),1580406182705,13.9747,slider_main,21,g|gb|b|bg,participant1
568,How acceptable is the utterance below as an informative description of the picture?,5398|8743|11575|14750,50,302.5|160|80|40,417.5|40|40|80,NA,Higher Degree,1580407021187,13,female,English,completely inacceptable,completely acceptable,275|230|75|100,450|180|75|200,images/group2/S34-806.jpg,NA,The <b>green</b> block <b>will</b> touch the ground.,The <b>blue</b> block <b>will</b> touch the ground.,"If the <b>blue</b> block <b>will</b> touch the ground, the <b>green</b> block <b>will</b> also touch the ground.","If the <b>green</b> block <b>will</b> touch the ground, the <b>blue</b> block <b>will</b> also touch the ground.",20|25|77|78,Thu Jan 30 2020 17:43:02 GMT+0000 (GMT Standard Time),1580406182705,13.9747,slider_main,22,g|b|bg|gb,participant1
568,How acceptable is the utterance below as an informative description of the picture?,4527|6495|8702|10462,50,282.5|140|40|80,432.5|140|40|80,NA,Higher Degree,1580407021187,13,female,English,completely inacceptable,completely acceptable,362.5|230|150|100,NA,images/group2/S12-203.jpg,NA,The <b>blue</b> block <b>will</b> touch the ground.,"If the <b>green</b> block <b>will</b> touch the ground, the <b>blue</b> block <b>will</b> also touch the ground.",The <b>green</b> block <b>will</b> touch the ground.,"If the <b>blue</b> block <b>will</b> touch the ground, the <b>green</b> block <b>will</b> also touch the ground.",28|24|23|15,Thu Jan 30 2020 17:43:02 GMT+0000 (GMT Standard Time),1580406182705,13.9747,slider_main,23,b|gb|g|bg,participant1
568,How acceptable is the utterance below as an informative description of the picture?,4439|11112|15087|17831,50,292.5|40|40|80,442.5|140|40|80,NA,Higher Degree,1580407021187,13,female,English,completely inacceptable,completely acceptable,250|180|75|200,475|230|75|100,images/group2/S10-203.jpg,NA,"If the <b>green</b> block <b>will</b> touch the ground, the <b>blue</b> block <b>will</b> also touch the ground.",The <b>green</b> block <b>will</b> touch the ground.,"If the <b>blue</b> block <b>will</b> touch the ground, the <b>green</b> block <b>will</b> also touch the ground.",The <b>blue</b> block <b>will</b> touch the ground.,88|88|84|71,Thu Jan 30 2020 17:43:02 GMT+0000 (GMT Standard Time),1580406182705,13.9747,slider_main,24,gb|g|bg|b,participant1
568,How acceptable is the utterance below as an informative description of the picture?,7894|10191|11847|13567,50,335|160|80|40,365|120|80|40,NA,Higher Degree,1580407021187,13,female,English,completely inacceptable,completely acceptable,362.5|230|75|100,NA,images/group2/S54-806.jpg,NA,"If the <b>green</b> block <b>will</b> touch the ground, the <b>blue</b> block <b>will</b> also touch the ground.",The <b>blue</b> block <b>will</b> touch the ground.,"If the <b>blue</b> block <b>will</b> touch the ground, the <b>green</b> block <b>will</b> also touch the ground.",The <b>green</b> block <b>will</b> touch the ground.,81|83|85|87,Thu Jan 30 2020 17:43:02 GMT+0000 (GMT Standard Time),1580406182705,13.9747,slider_main,25,gb|b|bg|g,participant1
567,NA,53991,22,292.5|140||80,437.5|160|80|40,NA,Graduated College,1580388559947,13,male,English,NA,NA,250|230|75|100,475|230|75|100,NA,NA,NA,NA,NA,NA,100|100|67|100,Thu Jan 30 2020 12:16:50 GMT+0000 (Greenwich Mean Time),1580386610416,32.49218333333334,train1,1,b|gb|bg|g,participant2
567,NA,38177,22,292.5|40||80,442.5|140|40|80,NA,Graduated College,1580388559947,13,male,English,NA,NA,212.5|180|150|200,512.5|230|150|100,NA,NA,NA,NA,NA,NA,100|95|95|100,Thu Jan 30 2020 12:16:50 GMT+0000 (Greenwich Mean Time),1580386610416,32.49218333333334,train2,2,b|bg|gb|g,participant2
567,NA,48228,22,374.66511861271107|140||80,372.64259672377136|60|40|80,NA,Graduated College,1580388559947,13,male,English,NA,NA,362.5|230|150|100,NA,NA,NA,NA,NA,NA,NA,22|28|0|40,Thu Jan 30 2020 12:16:50 GMT+0000 (Greenwich Mean Time),1580386610416,32.49218333333334,train3,3,gb|g|b|bg,participant2
567,NA,28741,22,410.48138368034296|78.33333333333331||80,389.1258180663348|158.33333333333331|40|80,NA,Graduated College,1580388559947,13,male,English,NA,NA,seesaw,NA,NA,NA,NA,NA,NA,NA,84|100|100|57,Thu Jan 30 2020 12:16:50 GMT+0000 (Greenwich Mean Time),1580386610416,32.49218333333334,train4,4,b|g|bg|gb,participant2
567,How acceptable is the utterance below as an informative description of the picture?,7872|24691|28766|30811,22,282.5|140|40|80,437.5|140|40|80,NA,Graduated College,1580388559947,13,male,English,completely inacceptable,completely acceptable,362.5|230|150|100,NA,images/group2/S22-468.jpg,NA,"If the <b>blue</b> block <b>will</b> touch the ground, the <b>green</b> block <b>will</b> also touch the ground.","If the <b>green</b> block <b>will</b> touch the ground, the <b>blue</b> block <b>will</b> also touch the ground.",The <b>green</b> block <b>will</b> touch the ground.,The <b>blue</b> block <b>will</b> touch the ground.,100|100|100|100,Thu Jan 30 2020 12:16:50 GMT+0000 (Greenwich Mean Time),1580386610416,32.49218333333334,slider_main,1,bg|gb|g|b,participant2
567,How acceptable is the utterance below as an informative description of the picture?,50177|58889|62348|69046,22,282.5|40|40|80,442.5|140|40|80,NA,Graduated College,1580388559947,13,male,English,completely inacceptable,completely acceptable,250|180|75|200,475|230|75|100,images/group2/S32-806.jpg,NA,"If the <b>blue</b> block <b>will</b> touch the ground, the <b>green</b> block <b>will</b> also touch the ground.",The <b>green</b> block <b>will</b> touch the ground.,"If the <b>green</b> block <b>will</b> touch the ground, the <b>blue</b> block <b>will</b> also touch the ground.",The <b>blue</b> block <b>will</b> touch the ground.,25|92|58|77,Thu Jan 30 2020 12:16:50 GMT+0000 (Greenwich Mean Time),1580386610416,32.49218333333334,slider_main,2,bg|g|gb|b,participant2
567,How acceptable is the utterance below as an informative description of the picture?,8570|11925|14067|18790,22,335|160|80|40,375|100|40|80,NA,Graduated College,1580388559947,13,male,English,completely inacceptable,completely acceptable,362.5|230|75|100,NA,images/group2/S59-1007.jpg,NA,The <b>green</b> block <b>will</b> touch the ground.,"If the <b>blue</b> block <b>will</b> touch the ground, the <b>green</b> block <b>will</b> also touch the ground.","If the <b>green</b> block <b>will</b> touch the ground, the <b>blue</b> block <b>will</b> also touch the ground.",The <b>blue</b> block <b>will</b> touch the ground.,0|59|64|95,Thu Jan 30 2020 12:16:50 GMT+0000 (Greenwich Mean Time),1580386610416,32.49218333333334,slider_main,3,g|bg|gb|b,participant2
567,How acceptable is the utterance below as an informative description of the picture?,4592|12354|16302|22572,22,292.5|40|40|80,432.5|40|40|80,NA,Graduated College,1580388559947,13,male,English,completely inacceptable,completely acceptable,250|180|75|200,475|180|75|200,images/group2/S1-121.jpg,NA,The <b>green</b> block <b>will</b> touch the ground.,"If the <b>green</b> block <b>will</b> touch the ground, the <b>blue</b> block <b>will</b> also touch the ground.",The <b>blue</b> block <b>will</b> touch the ground.,"If the <b>blue</b> block <b>will</b> touch the ground, the <b>green</b> block <b>will</b> also touch the ground.",100|100|72|100,Thu Jan 30 2020 12:16:50 GMT+0000 (Greenwich Mean Time),1580386610416,32.49218333333334,slider_main,4,g|gb|b|bg,participant2
567,How acceptable is the utterance below as an informative description of the picture?,9193|12055|61042|64797,22,292.5|40|40|80,442.5|140|40|80,NA,Graduated College,1580388559947,13,male,English,completely inacceptable,completely acceptable,250|180|75|200,475|230|75|100,images/group2/S10-203.jpg,NA,The <b>green</b> block <b>will</b> touch the ground.,The <b>blue</b> block <b>will</b> touch the ground.,"If the <b>blue</b> block <b>will</b> touch the ground, the <b>green</b> block <b>will</b> also touch the ground.","If the <b>green</b> block <b>will</b> touch the ground, the <b>blue</b> block <b>will</b> also touch the ground.",100|0|0|0,Thu Jan 30 2020 12:16:50 GMT+0000 (Greenwich Mean Time),1580386610416,32.49218333333334,slider_main,5,g|b|bg|gb,participant2
567,How acceptable is the utterance below as an informative description of the picture?,3311|5817|11772|16295,22,287.5|140|40|80,437.5|140|40|80,NA,Graduated College,1580388559947,13,male,English,completely inacceptable,completely acceptable,212.5|230|150|100,512.5|230|150|100,images/group2/S83-1609.jpg,NA,The <b>green</b> block <b>will</b> touch the ground.,The <b>blue</b> block <b>will</b> touch the ground.,"If the <b>green</b> block <b>will</b> touch the ground, the <b>blue</b> block <b>will</b> also touch the ground.","If the <b>blue</b> block <b>will</b> touch the ground, the <b>green</b> block <b>will</b> also touch the ground.",100|100|77|100,Thu Jan 30 2020 12:16:50 GMT+0000 (Greenwich Mean Time),1580386610416,32.49218333333334,slider_main,6,g|b|gb|bg,participant2
567,How acceptable is the utterance below as an informative description of the picture?,5238|6919|14261|15775,22,320|140|40|80,400|140|40|80,NA,Graduated College,1580388559947,13,male,English,completely inacceptable,completely acceptable,300|230|50|100,425|230|50|100,images/group2/S63-1039.jpg,NA,"If the <b>green</b> block <b>will</b> touch the ground, the <b>blue</b> block <b>will</b> also touch the ground.","If the <b>blue</b> block <b>will</b> touch the ground, the <b>green</b> block <b>will</b> also touch the ground.",The <b>blue</b> block <b>will</b> touch the ground.,The <b>green</b> block <b>will</b> touch the ground.,0|0|0|0,Thu Jan 30 2020 12:16:50 GMT+0000 (Greenwich Mean Time),1580386610416,32.49218333333334,slider_main,7,gb|bg|b|g,participant2
567,How acceptable is the utterance below as an informative description of the picture?,17393|24325|25970|31012,22,335|160|80|40,365|120|80|40,NA,Graduated College,1580388559947,13,male,English,completely inacceptable,completely acceptable,362.5|230|75|100,NA,images/group2/S54-806.jpg,NA,The <b>green</b> block <b>will</b> touch the ground.,"If the <b>green</b> block <b>will</b> touch the ground, the <b>blue</b> block <b>will</b> also touch the ground.","If the <b>blue</b> block <b>will</b> touch the ground, the <b>green</b> block <b>will</b> also touch the ground.",The <b>blue</b> block <b>will</b> touch the ground.,16|0|59|94,Thu Jan 30 2020 12:16:50 GMT+0000 (Greenwich Mean Time),1580386610416,32.49218333333334,slider_main,8,g|gb|bg|b,participant2
567,How acceptable is the utterance below as an informative description of the picture?,11315|18221|21499|26849,22,377.5|120|80|40,347.5|160|80|40,NA,Graduated College,1580388559947,13,male,English,completely inacceptable,completely acceptable,362.5|230|150|100,NA,images/group2/S30-805-dep.jpg,NA,The <b>green</b> block <b>will</b> touch the ground.,"If the <b>blue</b> block <b>will</b> touch the ground, the <b>green</b> block <b>will</b> also touch the ground.",The <b>blue</b> block <b>will</b> touch the ground.,"If the <b>green</b> block <b>will</b> touch the ground, the <b>blue</b> block <b>will</b> also touch the ground.",0|0|0|0,Thu Jan 30 2020 12:16:50 GMT+0000 (Greenwich Mean Time),1580386610416,32.49218333333334,slider_main,9,g|bg|b|gb,participant2
567,How acceptable is the utterance below as an informative description of the picture?,10867|15260|17567|22821,22,262.5|178.33333333333331|80|40,462.5|178.33333333333331|80|40,NA,Graduated College,1580388559947,13,male,English,completely inacceptable,completely acceptable,seesaw,NA,images/group2/S89-1642-dep.jpg,NA,"If the <b>blue</b> block <b>will</b> touch the ground, the <b>green</b> block <b>will</b> also touch the ground.",The <b>blue</b> block <b>will</b> touch the ground.,The <b>green</b> block <b>will</b> touch the ground.,"If the <b>green</b> block <b>will</b> touch the ground, the <b>blue</b> block <b>will</b> also touch the ground.",0|0|0|100,Thu Jan 30 2020 12:16:50 GMT+0000 (Greenwich Mean Time),1580386610416,32.49218333333334,slider_main,10,bg|b|g|gb,participant2
567,How acceptable is the utterance below as an informative description of the picture?,851829|853981|855636|861664,22,362.5|138.33333333333331|80|40,362.5|178.33333333333331|80|40,NA,Graduated College,1580388559947,13,male,English,completely inacceptable,completely acceptable,seesaw,NA,images/group2/S42-806.jpg,NA,"If the <b>green</b> block <b>will</b> touch the ground, the <b>blue</b> block <b>will</b> also touch the ground.","If the <b>blue</b> block <b>will</b> touch the ground, the <b>green</b> block <b>will</b> also touch the ground.",The <b>green</b> block <b>will</b> touch the ground.,The <b>blue</b> block <b>will</b> touch the ground.,0|100|67|76,Thu Jan 30 2020 12:16:50 GMT+0000 (Greenwich Mean Time),1580386610416,32.49218333333334,slider_main,11,gb|bg|g|b,participant2
567,How acceptable is the utterance below as an informative description of the picture?,31655|33285|38160|40558,22,252.5|178.33333333333331|80|40,472.5|178.33333333333331|80|40,NA,Graduated College,1580388559947,13,male,English,completely inacceptable,completely acceptable,seesaw,NA,images/group2/S7-130-dep.jpg,NA,"If the <b>blue</b> block <b>will</b> touch the ground, the <b>green</b> block <b>will</b> also touch the ground.",The <b>green</b> block <b>will</b> touch the ground.,The <b>blue</b> block <b>will</b> touch the ground.,"If the <b>green</b> block <b>will</b> touch the ground, the <b>blue</b> block <b>will</b> also touch the ground.",100|100|100|100,Thu Jan 30 2020 12:16:50 GMT+0000 (Greenwich Mean Time),1580386610416,32.49218333333334,slider_main,12,bg|g|b|gb,participant2
567,How acceptable is the utterance below as an informative description of the picture?,4676|6271|7473|8591,22,292.5|140|40|80,432.5|140|40|80,NA,Graduated College,1580388559947,13,male,English,completely inacceptable,completely acceptable,362.5|230|150|100,NA,images/group2/S30-805.jpg,NA,The <b>blue</b> block <b>will</b> touch the ground.,"If the <b>blue</b> block <b>will</b> touch the ground, the <b>green</b> block <b>will</b> also touch the ground.",The <b>green</b> block <b>will</b> touch the ground.,"If the <b>green</b> block <b>will</b> touch the ground, the <b>blue</b> block <b>will</b> also touch the ground.",0|67|0|0,Thu Jan 30 2020 12:16:50 GMT+0000 (Greenwich Mean Time),1580386610416,32.49218333333334,slider_main,13,b|bg|g|gb,participant2
567,How acceptable is the utterance below as an informative description of the picture?,3258|5156|9341|10623,22,370|100|40|80,335|160|80|40,NA,Graduated College,1580388559947,13,male,English,completely inacceptable,completely acceptable,362.5|230|75|100,NA,images/group2/S44-806.jpg,NA,The <b>blue</b> block <b>will</b> touch the ground.,The <b>green</b> block <b>will</b> touch the ground.,"If the <b>green</b> block <b>will</b> touch the ground, the <b>blue</b> block <b>will</b> also touch the ground.","If the <b>blue</b> block <b>will</b> touch the ground, the <b>green</b> block <b>will</b> also touch the ground.",100|100|44|91,Thu Jan 30 2020 12:16:50 GMT+0000 (Greenwich Mean Time),1580386610416,32.49218333333334,slider_main,14,b|g|gb|bg,participant2
567,How acceptable is the utterance below as an informative description of the picture?,36956|38694|41281|42814,22,408.5|154.33333333333331|80|40,328.5|154.33333333333331|80|40,NA,Graduated College,1580388559947,13,male,English,completely inacceptable,completely acceptable,seesaw,NA,images/group2/S97-1674.jpg,NA,The <b>blue</b> block <b>will</b> touch the ground.,"If the <b>green</b> block <b>will</b> touch the ground, the <b>blue</b> block <b>will</b> also touch the ground.","If the <b>blue</b> block <b>will</b> touch the ground, the <b>green</b> block <b>will</b> also touch the ground.",The <b>green</b> block <b>will</b> touch the ground.,26|70|66|30,Thu Jan 30 2020 12:16:50 GMT+0000 (Greenwich Mean Time),1580386610416,32.49218333333334,slider_main,15,b|gb|bg|g,participant2
567,How acceptable is the utterance below as an informative description of the picture?,89027|90948|92423|94000,22,282.5|140|40|80,442.5|140|40|80,NA,Graduated College,1580388559947,13,male,English,completely inacceptable,completely acceptable,362.5|230|150|100,NA,images/group2/S7-130.jpg,NA,"If the <b>green</b> block <b>will</b> touch the ground, the <b>blue</b> block <b>will</b> also touch the ground.",The <b>green</b> block <b>will</b> touch the ground.,The <b>blue</b> block <b>will</b> touch the ground.,"If the <b>blue</b> block <b>will</b> touch the ground, the <b>green</b> block <b>will</b> also touch the ground.",100|100|100|100,Thu Jan 30 2020 12:16:50 GMT+0000 (Greenwich Mean Time),1580386610416,32.49218333333334,slider_main,16,gb|g|b|bg,participant2
567,How acceptable is the utterance below as an informative description of the picture?,2541|6018|8047|9227,22,292.5|40|40|80,437.5|40|40|80,NA,Graduated College,1580388559947,13,male,English,completely inacceptable,completely acceptable,250|180|75|200,475|180|75|200,images/group2/S15-443.jpg,NA,The <b>blue</b> block <b>will</b> touch the ground.,"If the <b>green</b> block <b>will</b> touch the ground, the <b>blue</b> block <b>will</b> also touch the ground.",The <b>green</b> block <b>will</b> touch the ground.,"If the <b>blue</b> block <b>will</b> touch the ground, the <b>green</b> block <b>will</b> also touch the ground.",100|100|100|100,Thu Jan 30 2020 12:16:50 GMT+0000 (Greenwich Mean Time),1580386610416,32.49218333333334,slider_main,17,b|gb|g|bg,participant2
567,How acceptable is the utterance below as an informative description of the picture?,5337|7420|13482|17034,22,250|160|80|40,400|40|40|80,NA,Graduated College,1580388559947,13,male,English,completely inacceptable,completely acceptable,287.5|230|75|100,437.5|180|75|200,images/group2/S93-1674.jpg,NA,The <b>blue</b> block <b>will</b> touch the ground.,"If the <b>blue</b> block <b>will</b> touch the ground, the <b>green</b> block <b>will</b> also touch the ground.","If the <b>green</b> block <b>will</b> touch the ground, the <b>blue</b> block <b>will</b> also touch the ground.",The <b>green</b> block <b>will</b> touch the ground.,100|0|39|100,Thu Jan 30 2020 12:16:50 GMT+0000 (Greenwich Mean Time),1580386610416,32.49218333333334,slider_main,18,b|bg|gb|g,participant2
567,How acceptable is the utterance below as an informative description of the picture?,3887|6854|8104|9951,22,282.5|140|40|80,437.5|160|80|40,NA,Graduated College,1580388559947,13,male,English,completely inacceptable,completely acceptable,250|230|75|100,475|230|75|100,images/group2/S55-1006.jpg,NA,The <b>blue</b> block <b>will</b> touch the ground.,"If the <b>blue</b> block <b>will</b> touch the ground, the <b>green</b> block <b>will</b> also touch the ground.","If the <b>green</b> block <b>will</b> touch the ground, the <b>blue</b> block <b>will</b> also touch the ground.",The <b>green</b> block <b>will</b> touch the ground.,100|100|25|100,Thu Jan 30 2020 12:16:50 GMT+0000 (Greenwich Mean Time),1580386610416,32.49218333333334,slider_main,19,b|bg|gb|g,participant2
567,How acceptable is the utterance below as an informative description of the picture?,5269|6919|8822|11414,22,317.5|140|40|80,417.5|140|40|80,NA,Graduated College,1580388559947,13,male,English,completely inacceptable,completely acceptable,237.5|230|150|100,487.5|230|150|100,images/group2/S8-202.jpg,NA,"If the <b>green</b> block <b>will</b> touch the ground, the <b>blue</b> block <b>will</b> also touch the ground.",The <b>green</b> block <b>will</b> touch the ground.,The <b>blue</b> block <b>will</b> touch the ground.,"If the <b>blue</b> block <b>will</b> touch the ground, the <b>green</b> block <b>will</b> also touch the ground.",29|19|5|0,Thu Jan 30 2020 12:16:50 GMT+0000 (Greenwich Mean Time),1580386610416,32.49218333333334,slider_main,20,gb|g|b|bg,participant2
567,How acceptable is the utterance below as an informative description of the picture?,7940|10146|45168|54014,22,302.5|160|80|40,417.5|40|40|80,NA,Graduated College,1580388559947,13,male,English,completely inacceptable,completely acceptable,275|230|75|100,450|180|75|200,images/group2/S34-806.jpg,NA,The <b>green</b> block <b>will</b> touch the ground.,"If the <b>green</b> block <b>will</b> touch the ground, the <b>blue</b> block <b>will</b> also touch the ground.","If the <b>blue</b> block <b>will</b> touch the ground, the <b>green</b> block <b>will</b> also touch the ground.",The <b>blue</b> block <b>will</b> touch the ground.,61|78|63|49,Thu Jan 30 2020 12:16:50 GMT+0000 (Greenwich Mean Time),1580386610416,32.49218333333334,slider_main,21,g|gb|bg|b,participant2
567,How acceptable is the utterance below as an informative description of the picture?,3408|5728|7104|8912,22,287.5|140|40|80,437.5|140|40|80,NA,Graduated College,1580388559947,13,male,English,completely inacceptable,completely acceptable,362.5|230|150|100,NA,images/group2/S89-1642.jpg,NA,The <b>green</b> block <b>will</b> touch the ground.,The <b>blue</b> block <b>will</b> touch the ground.,"If the <b>blue</b> block <b>will</b> touch the ground, the <b>green</b> block <b>will</b> also touch the ground.","If the <b>green</b> block <b>will</b> touch the ground, the <b>blue</b> block <b>will</b> also touch the ground.",93|100|95|80,Thu Jan 30 2020 12:16:50 GMT+0000 (Greenwich Mean Time),1580386610416,32.49218333333334,slider_main,22,g|b|bg|gb,participant2
567,How acceptable is the utterance below as an informative description of the picture?,43349|47341|49910|51134,22,282.5|140|40|80,432.5|140|40|80,NA,Graduated College,1580388559947,13,male,English,completely inacceptable,completely acceptable,362.5|230|150|100,NA,images/group2/S12-203.jpg,NA,The <b>green</b> block <b>will</b> touch the ground.,"If the <b>green</b> block <b>will</b> touch the ground, the <b>blue</b> block <b>will</b> also touch the ground.","If the <b>blue</b> block <b>will</b> touch the ground, the <b>green</b> block <b>will</b> also touch the ground.",The <b>blue</b> block <b>will</b> touch the ground.,97|38|64|84,Thu Jan 30 2020 12:16:50 GMT+0000 (Greenwich Mean Time),1580386610416,32.49218333333334,slider_main,23,g|gb|bg|b,participant2
567,How acceptable is the utterance below as an informative description of the picture?,4049|32364|63066|65371,22,292.5|40|40|80,437.5|140|40|80,NA,Graduated College,1580388559947,13,male,English,completely inacceptable,completely acceptable,250|180|75|200,475|230|75|100,images/group2/S20-468.jpg,NA,"If the <b>blue</b> block <b>will</b> touch the ground, the <b>green</b> block <b>will</b> also touch the ground.",The <b>green</b> block <b>will</b> touch the ground.,The <b>blue</b> block <b>will</b> touch the ground.,"If the <b>green</b> block <b>will</b> touch the ground, the <b>blue</b> block <b>will</b> also touch the ground.",100|100|100|29,Thu Jan 30 2020 12:16:50 GMT+0000 (Greenwich Mean Time),1580386610416,32.49218333333334,slider_main,24,bg|g|b|gb,participant2
567,How acceptable is the utterance below as an informative description of the picture?,17870|19689|21314|23784,22,292.5|140|40|80,437.5|140|40|80,NA,Graduated College,1580388559947,13,male,English,completely inacceptable,completely acceptable,362.5|230|150|100,NA,images/group2/S57-1007.jpg,NA,The <b>blue</b> block <b>will</b> touch the ground.,The <b>green</b> block <b>will</b> touch the ground.,"If the <b>green</b> block <b>will</b> touch the ground, the <b>blue</b> block <b>will</b> also touch the ground.","If the <b>blue</b> block <b>will</b> touch the ground, the <b>green</b> block <b>will</b> also touch the ground.",100|0|0|0,Thu Jan 30 2020 12:16:50 GMT+0000 (Greenwich Mean Time),1580386610416,32.49218333333334,slider_main,25,b|g|gb|bg,participant2
566,NA,131502,24,305|140||80,450|160|80|40,NA,Graduated College,1580388543133,13,male,English,NA,NA,262.5|230|75|100,475|230|50|100,NA,NA,NA,NA,NA,NA,36|64|51|43,Thu Jan 30 2020 12:13:56 GMT+0000 (Greenwich Mean Time),1580386436138,35.11658333333333,train1,1,g|b|gb|bg,participant3
566,NA,37819,24,292.5|40||80,442.5|140|40|80,NA,Graduated College,1580388543133,13,male,English,NA,NA,212.5|180|150|200,512.5|230|150|100,NA,NA,NA,NA,NA,NA,39|59|68|63,Thu Jan 30 2020 12:13:56 GMT+0000 (Greenwich Mean Time),1580386436138,35.11658333333333,train2,2,bg|gb|g|b,participant3
566,NA,31564,24,345.837805008754|60||80,370.05707293066376|140|40|80,NA,Graduated College,1580388543133,13,male,English,NA,NA,362.5|230|50|100,NA,NA,NA,NA,NA,NA,NA,28|80|72|37,Thu Jan 30 2020 12:13:56 GMT+0000 (Greenwich Mean Time),1580386436138,35.11658333333333,train3,3,b|bg|g|gb,participant3
566,NA,36280,24,311.54987770515186|118.33333333333331||80,264.1386374099019|178.33333333333331|80|40,NA,Graduated College,1580388543133,13,male,English,NA,NA,seesaw,NA,NA,NA,NA,NA,NA,NA,54|65|63|32,Thu Jan 30 2020 12:13:56 GMT+0000 (Greenwich Mean Time),1580386436138,35.11658333333333,train4,4,gb|b|g|bg,participant3
566,How acceptable is the utterance below as an informative description of the picture?,39604|49282|56568|62522,24,362.5|138.33333333333331|80|40,362.5|178.33333333333331|80|40,NA,Graduated College,1580388543133,13,male,English,completely inacceptable,completely acceptable,seesaw,NA,images/group1/S42-806.jpg,NA,"If the <b>green</b> block <b>will</b> touch the ground, the <b>blue</b> block <b>will</b> also touch the ground.",The <b>blue</b> block <b>will</b> touch the ground.,"If the <b>blue</b> block <b>will</b> touch the ground, the <b>green</b> block <b>will</b> also touch the ground.",The <b>green</b> block <b>will</b> touch the ground.,80|62|41|39,Thu Jan 30 2020 12:13:56 GMT+0000 (Greenwich Mean Time),1580386436138,35.11658333333333,slider_main,1,gb|b|bg|g,participant3
566,How acceptable is the utterance below as an informative description of the picture?,27604|37273|45094|50784,24,370|100|40|80,335|160|80|40,NA,Graduated College,1580388543133,13,male,English,completely inacceptable,completely acceptable,362.5|230|75|100,NA,images/group1/S44-806.jpg,NA,"If the <b>blue</b> block <b>will</b> touch the ground, the <b>green</b> block <b>will</b> also touch the ground.",The <b>green</b> block <b>will</b> touch the ground.,"If the <b>green</b> block <b>will</b> touch the ground, the <b>blue</b> block <b>will</b> also touch the ground.",The <b>blue</b> block <b>will</b> touch the ground.,33|27|71|66,Thu Jan 30 2020 12:13:56 GMT+0000 (Greenwich Mean Time),1580386436138,35.11658333333333,slider_main,2,bg|g|gb|b,participant3
566,How acceptable is the utterance below as an informative description of the picture?,10287|17917|26479|36185,24,302.5|160|80|40,417.5|40|40|80,NA,Graduated College,1580388543133,13,male,English,completely inacceptable,completely acceptable,275|230|75|100,450|180|75|200,images/group1/S34-806.jpg,NA,The <b>green</b> block <b>will</b> touch the ground.,"If the <b>green</b> block <b>will</b> touch the ground, the <b>blue</b> block <b>will</b> also touch the ground.",The <b>blue</b> block <b>will</b> touch the ground.,"If the <b>blue</b> block <b>will</b> touch the ground, the <b>green</b> block <b>will</b> also touch the ground.",28|35|39|28,Thu Jan 30 2020 12:13:56 GMT+0000 (Greenwich Mean Time),1580386436138,35.11658333333333,slider_main,3,g|gb|b|bg,participant3
566,How acceptable is the utterance below as an informative description of the picture?,15786|20087|28221|35080,24,282.5|40|40|80,442.5|140|40|80,NA,Graduated College,1580388543133,13,male,English,completely inacceptable,completely acceptable,250|180|75|200,475|230|75|100,images/group1/S32-806.jpg,NA,The <b>blue</b> block <b>will</b> touch the ground.,The <b>green</b> block <b>will</b> touch the ground.,"If the <b>blue</b> block <b>will</b> touch the ground, the <b>green</b> block <b>will</b> also touch the ground.","If the <b>green</b> block <b>will</b> touch the ground, the <b>blue</b> block <b>will</b> also touch the ground.",37|42|45|39,Thu Jan 30 2020 12:13:56 GMT+0000 (Greenwich Mean Time),1580386436138,35.11658333333333,slider_main,4,b|g|bg|gb,participant3
566,How acceptable is the utterance below as an informative description of the picture?,12279|24253|78384|88325,24,252.5|178.33333333333331|80|40,472.5|178.33333333333331|80|40,NA,Graduated College,1580388543133,13,male,English,completely inacceptable,completely acceptable,seesaw,NA,images/group1/S7-130-dep.jpg,NA,"If the <b>blue</b> block <b>will</b> touch the ground, the <b>green</b> block <b>will</b> also touch the ground.",The <b>blue</b> block <b>will</b> touch the ground.,"If the <b>green</b> block <b>will</b> touch the ground, the <b>blue</b> block <b>will</b> also touch the ground.",The <b>green</b> block <b>will</b> touch the ground.,38|67|66|55,Thu Jan 30 2020 12:13:56 GMT+0000 (Greenwich Mean Time),1580386436138,35.11658333333333,slider_main,5,bg|b|gb|g,participant3
566,How acceptable is the utterance below as an informative description of the picture?,6427|14448|17240|20587,24,282.5|140|40|80,442.5|140|40|80,NA,Graduated College,1580388543133,13,male,English,completely inacceptable,completely acceptable,362.5|230|150|100,NA,images/group1/S7-130.jpg,NA,The <b>blue</b> block <b>will</b> touch the ground.,"If the <b>blue</b> block <b>will</b> touch the ground, the <b>green</b> block <b>will</b> also touch the ground.",The <b>green</b> block <b>will</b> touch the ground.,"If the <b>green</b> block <b>will</b> touch the ground, the <b>blue</b> block <b>will</b> also touch the ground.",72|77|58|54,Thu Jan 30 2020 12:13:56 GMT+0000 (Greenwich Mean Time),1580386436138,35.11658333333333,slider_main,6,b|bg|g|gb,participant3
566,How acceptable is the utterance below as an informative description of the picture?,9003|13705|18620|25566,24,335|160|80|40,375|100|40|80,NA,Graduated College,1580388543133,13,male,English,completely inacceptable,completely acceptable,362.5|230|75|100,NA,images/group1/S59-1007.jpg,NA,"If the <b>blue</b> block <b>will</b> touch the ground, the <b>green</b> block <b>will</b> also touch the ground.","If the <b>green</b> block <b>will</b> touch the ground, the <b>blue</b> block <b>will</b> also touch the ground.",The <b>blue</b> block <b>will</b> touch the ground.,The <b>green</b> block <b>will</b> touch the ground.,65|40|47|67,Thu Jan 30 2020 12:13:56 GMT+0000 (Greenwich Mean Time),1580386436138,35.11658333333333,slider_main,7,bg|gb|b|g,participant3
566,How acceptable is the utterance below as an informative description of the picture?,5188|8639|14383|22259,24,292.5|40|40|80,432.5|40|40|80,NA,Graduated College,1580388543133,13,male,English,completely inacceptable,completely acceptable,250|180|75|200,475|180|75|200,images/group1/S1-121.jpg,NA,"If the <b>green</b> block <b>will</b> touch the ground, the <b>blue</b> block <b>will</b> also touch the ground.",The <b>blue</b> block <b>will</b> touch the ground.,"If the <b>blue</b> block <b>will</b> touch the ground, the <b>green</b> block <b>will</b> also touch the ground.",The <b>green</b> block <b>will</b> touch the ground.,56|78|41|71,Thu Jan 30 2020 12:13:56 GMT+0000 (Greenwich Mean Time),1580386436138,35.11658333333333,slider_main,8,gb|b|bg|g,participant3
566,How acceptable is the utterance below as an informative description of the picture?,6063|10942|13694|20051,24,292.5|40|40|80,437.5|140|40|80,NA,Graduated College,1580388543133,13,male,English,completely inacceptable,completely acceptable,250|180|75|200,475|230|75|100,images/group1/S20-468.jpg,NA,The <b>blue</b> block <b>will</b> touch the ground.,"If the <b>green</b> block <b>will</b> touch the ground, the <b>blue</b> block <b>will</b> also touch the ground.","If the <b>blue</b> block <b>will</b> touch the ground, the <b>green</b> block <b>will</b> also touch the ground.",The <b>green</b> block <b>will</b> touch the ground.,74|58|64|54,Thu Jan 30 2020 12:13:56 GMT+0000 (Greenwich Mean Time),1580386436138,35.11658333333333,slider_main,9,b|gb|bg|g,participant3
566,How acceptable is the utterance below as an informative description of the picture?,27174|30756|88015|94398,24,292.5|140|40|80,437.5|140|40|80,NA,Graduated College,1580388543133,13,male,English,completely inacceptable,completely acceptable,362.5|230|150|100,NA,images/group1/S57-1007.jpg,NA,"If the <b>green</b> block <b>will</b> touch the ground, the <b>blue</b> block <b>will</b> also touch the ground.",The <b>green</b> block <b>will</b> touch the ground.,"If the <b>blue</b> block <b>will</b> touch the ground, the <b>green</b> block <b>will</b> also touch the ground.",The <b>blue</b> block <b>will</b> touch the ground.,53|59|36|67,Thu Jan 30 2020 12:13:56 GMT+0000 (Greenwich Mean Time),1580386436138,35.11658333333333,slider_main,10,gb|g|bg|b,participant3
566,How acceptable is the utterance below as an informative description of the picture?,6512|9086|13111|23588,24,287.5|140|40|80,437.5|140|40|80,NA,Graduated College,1580388543133,13,male,English,completely inacceptable,completely acceptable,212.5|230|150|100,512.5|230|150|100,images/group1/S83-1609.jpg,NA,The <b>green</b> block <b>will</b> touch the ground.,The <b>blue</b> block <b>will</b> touch the ground.,"If the <b>green</b> block <b>will</b> touch the ground, the <b>blue</b> block <b>will</b> also touch the ground.","If the <b>blue</b> block <b>will</b> touch the ground, the <b>green</b> block <b>will</b> also touch the ground.",74|53|54|55,Thu Jan 30 2020 12:13:56 GMT+0000 (Greenwich Mean Time),1580386436138,35.11658333333333,slider_main,11,g|b|gb|bg,participant3
566,How acceptable is the utterance below as an informative description of the picture?,14194|17583|21908|30032,24,292.5|40|40|80,437.5|40|40|80,NA,Graduated College,1580388543133,13,male,English,completely inacceptable,completely acceptable,250|180|75|200,475|180|75|200,images/group1/S15-443.jpg,NA,The <b>green</b> block <b>will</b> touch the ground.,The <b>blue</b> block <b>will</b> touch the ground.,"If the <b>blue</b> block <b>will</b> touch the ground, the <b>green</b> block <b>will</b> also touch the ground.","If the <b>green</b> block <b>will</b> touch the ground, the <b>blue</b> block <b>will</b> also touch the ground.",55|69|40|54,Thu Jan 30 2020 12:13:56 GMT+0000 (Greenwich Mean Time),1580386436138,35.11658333333333,slider_main,12,g|b|bg|gb,participant3
566,How acceptable is the utterance below as an informative description of the picture?,5955|10625|17666|22928,24,292.5|40|40|80,442.5|140|40|80,NA,Graduated College,1580388543133,13,male,English,completely inacceptable,completely acceptable,250|180|75|200,475|230|75|100,images/group1/S10-203.jpg,NA,The <b>blue</b> block <b>will</b> touch the ground.,The <b>green</b> block <b>will</b> touch the ground.,"If the <b>blue</b> block <b>will</b> touch the ground, the <b>green</b> block <b>will</b> also touch the ground.","If the <b>green</b> block <b>will</b> touch the ground, the <b>blue</b> block <b>will</b> also touch the ground.",73|41|24|57,Thu Jan 30 2020 12:13:56 GMT+0000 (Greenwich Mean Time),1580386436138,35.11658333333333,slider_main,13,b|g|bg|gb,participant3
566,How acceptable is the utterance below as an informative description of the picture?,10426|29156|34863|38659,24,282.5|140|40|80,432.5|140|40|80,NA,Graduated College,1580388543133,13,male,English,completely inacceptable,completely acceptable,362.5|230|150|100,NA,images/group1/S12-203.jpg,NA,The <b>green</b> block <b>will</b> touch the ground.,"If the <b>blue</b> block <b>will</b> touch the ground, the <b>green</b> block <b>will</b> also touch the ground.",The <b>blue</b> block <b>will</b> touch the ground.,"If the <b>green</b> block <b>will</b> touch the ground, the <b>blue</b> block <b>will</b> also touch the ground.",42|37|71|37,Thu Jan 30 2020 12:13:56 GMT+0000 (Greenwich Mean Time),1580386436138,35.11658333333333,slider_main,14,g|bg|b|gb,participant3
566,How acceptable is the utterance below as an informative description of the picture?,66597|71477|76597|86678,24,262.5|178.33333333333331|80|40,462.5|178.33333333333331|80|40,NA,Graduated College,1580388543133,13,male,English,completely inacceptable,completely acceptable,seesaw,NA,images/group1/S89-1642-dep.jpg,NA,"If the <b>blue</b> block <b>will</b> touch the ground, the <b>green</b> block <b>will</b> also touch the ground.",The <b>blue</b> block <b>will</b> touch the ground.,The <b>green</b> block <b>will</b> touch the ground.,"If the <b>green</b> block <b>will</b> touch the ground, the <b>blue</b> block <b>will</b> also touch the ground.",40|69|57|59,Thu Jan 30 2020 12:13:56 GMT+0000 (Greenwich Mean Time),1580386436138,35.11658333333333,slider_main,15,bg|b|g|gb,participant3
566,How acceptable is the utterance below as an informative description of the picture?,6710|9291|14912|18794,24,335|160|80|40,365|120|80|40,NA,Graduated College,1580388543133,13,male,English,completely inacceptable,completely acceptable,362.5|230|75|100,NA,images/group1/S54-806.jpg,NA,The <b>green</b> block <b>will</b> touch the ground.,The <b>blue</b> block <b>will</b> touch the ground.,"If the <b>green</b> block <b>will</b> touch the ground, the <b>blue</b> block <b>will</b> also touch the ground.","If the <b>blue</b> block <b>will</b> touch the ground, the <b>green</b> block <b>will</b> also touch the ground.",56|49|54|67,Thu Jan 30 2020 12:13:56 GMT+0000 (Greenwich Mean Time),1580386436138,35.11658333333333,slider_main,16,g|b|gb|bg,participant3
566,How acceptable is the utterance below as an informative description of the picture?,20279|24219|26992|31857,24,377.5|120|80|40,347.5|160|80|40,NA,Graduated College,1580388543133,13,male,English,completely inacceptable,completely acceptable,362.5|230|150|100,NA,images/group1/S30-805-dep.jpg,NA,"If the <b>green</b> block <b>will</b> touch the ground, the <b>blue</b> block <b>will</b> also touch the ground.",The <b>green</b> block <b>will</b> touch the ground.,The <b>blue</b> block <b>will</b> touch the ground.,"If the <b>blue</b> block <b>will</b> touch the ground, the <b>green</b> block <b>will</b> also touch the ground.",41|24|61|21,Thu Jan 30 2020 12:13:56 GMT+0000 (Greenwich Mean Time),1580386436138,35.11658333333333,slider_main,17,gb|g|b|bg,participant3
566,How acceptable is the utterance below as an informative description of the picture?,9706|19211|21813|24767,24,320|140|40|80,400|140|40|80,NA,Graduated College,1580388543133,13,male,English,completely inacceptable,completely acceptable,300|230|50|100,425|230|50|100,images/group1/S63-1039.jpg,NA,"If the <b>blue</b> block <b>will</b> touch the ground, the <b>green</b> block <b>will</b> also touch the ground.",The <b>green</b> block <b>will</b> touch the ground.,The <b>blue</b> block <b>will</b> touch the ground.,"If the <b>green</b> block <b>will</b> touch the ground, the <b>blue</b> block <b>will</b> also touch the ground.",28|34|35|33,Thu Jan 30 2020 12:13:56 GMT+0000 (Greenwich Mean Time),1580386436138,35.11658333333333,slider_main,18,bg|g|b|gb,participant3
566,How acceptable is the utterance below as an informative description of the picture?,5071|13002|16483|22193,24,317.5|140|40|80,417.5|140|40|80,NA,Graduated College,1580388543133,13,male,English,completely inacceptable,completely acceptable,237.5|230|150|100,487.5|230|150|100,images/group1/S8-202.jpg,NA,The <b>green</b> block <b>will</b> touch the ground.,"If the <b>green</b> block <b>will</b> touch the ground, the <b>blue</b> block <b>will</b> also touch the ground.",The <b>blue</b> block <b>will</b> touch the ground.,"If the <b>blue</b> block <b>will</b> touch the ground, the <b>green</b> block <b>will</b> also touch the ground.",50|55|46|27,Thu Jan 30 2020 12:13:56 GMT+0000 (Greenwich Mean Time),1580386436138,35.11658333333333,slider_main,19,g|gb|b|bg,participant3
566,How acceptable is the utterance below as an informative description of the picture?,15950|31319|34939|38698,24,282.5|140|40|80,437.5|160|80|40,NA,Graduated College,1580388543133,13,male,English,completely inacceptable,completely acceptable,250|230|75|100,475|230|75|100,images/group1/S55-1006.jpg,NA,"If the <b>green</b> block <b>will</b> touch the ground, the <b>blue</b> block <b>will</b> also touch the ground.","If the <b>blue</b> block <b>will</b> touch the ground, the <b>green</b> block <b>will</b> also touch the ground.",The <b>green</b> block <b>will</b> touch the ground.,The <b>blue</b> block <b>will</b> touch the ground.,24|55|69|42,Thu Jan 30 2020 12:13:56 GMT+0000 (Greenwich Mean Time),1580386436138,35.11658333333333,slider_main,20,gb|bg|g|b,participant3
566,How acceptable is the utterance below as an informative description of the picture?,3908|7964|10459|115899,24,282.5|140|40|80,437.5|140|40|80,NA,Graduated College,1580388543133,13,male,English,completely inacceptable,completely acceptable,362.5|230|150|100,NA,images/group1/S22-468.jpg,NA,The <b>green</b> block <b>will</b> touch the ground.,"If the <b>green</b> block <b>will</b> touch the ground, the <b>blue</b> block <b>will</b> also touch the ground.",The <b>blue</b> block <b>will</b> touch the ground.,"If the <b>blue</b> block <b>will</b> touch the ground, the <b>green</b> block <b>will</b> also touch the ground.",51|51|67|47,Thu Jan 30 2020 12:13:56 GMT+0000 (Greenwich Mean Time),1580386436138,35.11658333333333,slider_main,21,g|gb|b|bg,participant3
566,How acceptable is the utterance below as an informative description of the picture?,5154|8678|11585|16810,24,250|160|80|40,400|40|40|80,NA,Graduated College,1580388543133,13,male,English,completely inacceptable,completely acceptable,287.5|230|75|100,437.5|180|75|200,images/group1/S93-1674.jpg,NA,The <b>green</b> block <b>will</b> touch the ground.,The <b>blue</b> block <b>will</b> touch the ground.,"If the <b>blue</b> block <b>will</b> touch the ground, the <b>green</b> block <b>will</b> also touch the ground.","If the <b>green</b> block <b>will</b> touch the ground, the <b>blue</b> block <b>will</b> also touch the ground.",72|46|29|47,Thu Jan 30 2020 12:13:56 GMT+0000 (Greenwich Mean Time),1580386436138,35.11658333333333,slider_main,22,g|b|bg|gb,participant3
566,How acceptable is the utterance below as an informative description of the picture?,7172|10397|12676|19215,24,292.5|140|40|80,432.5|140|40|80,NA,Graduated College,1580388543133,13,male,English,completely inacceptable,completely acceptable,362.5|230|150|100,NA,images/group1/S30-805.jpg,NA,"If the <b>green</b> block <b>will</b> touch the ground, the <b>blue</b> block <b>will</b> also touch the ground.",The <b>green</b> block <b>will</b> touch the ground.,The <b>blue</b> block <b>will</b> touch the ground.,"If the <b>blue</b> block <b>will</b> touch the ground, the <b>green</b> block <b>will</b> also touch the ground.",47|41|39|39,Thu Jan 30 2020 12:13:56 GMT+0000 (Greenwich Mean Time),1580386436138,35.11658333333333,slider_main,23,gb|g|b|bg,participant3
566,How acceptable is the utterance below as an informative description of the picture?,67614|70629|74629|80752,24,408.5|154.33333333333331|80|40,328.5|154.33333333333331|80|40,NA,Graduated College,1580388543133,13,male,English,completely inacceptable,completely acceptable,seesaw,NA,images/group1/S97-1674.jpg,NA,"If the <b>blue</b> block <b>will</b> touch the ground, the <b>green</b> block <b>will</b> also touch the ground.",The <b>blue</b> block <b>will</b> touch the ground.,The <b>green</b> block <b>will</b> touch the ground.,"If the <b>green</b> block <b>will</b> touch the ground, the <b>blue</b> block <b>will</b> also touch the ground.",43|42|43|54,Thu Jan 30 2020 12:13:56 GMT+0000 (Greenwich Mean Time),1580386436138,35.11658333333333,slider_main,24,bg|b|g|gb,participant3
566,How acceptable is the utterance below as an informative description of the picture?,21039|23620|27620|30883,24,287.5|140|40|80,437.5|140|40|80,NA,Graduated College,1580388543133,13,male,English,completely inacceptable,completely acceptable,362.5|230|150|100,NA,images/group1/S89-1642.jpg,NA,"If the <b>green</b> block <b>will</b> touch the ground, the <b>blue</b> block <b>will</b> also touch the ground.",The <b>blue</b> block <b>will</b> touch the ground.,"If the <b>blue</b> block <b>will</b> touch the ground, the <b>green</b> block <b>will</b> also touch the ground.",The <b>green</b> block <b>will</b> touch the ground.,47|66|51|53,Thu Jan 30 2020 12:13:56 GMT+0000 (Greenwich Mean Time),1580386436138,35.11658333333333,slider_main,25,gb|b|bg|g,participant3
565,NA,88894,32,282.5|140||80,437.5|160|80|40,NA,Graduated High School,1580388406627,13,male,English,NA,NA,262.5|230|50|100,462.5|230|50|100,NA,NA,NA,NA,NA,NA,80|65|88|61,Thu Jan 30 2020 12:24:16 GMT+0000 (GMT),1580387056151,22.507933333333334,train1,1,gb|g|b|bg,participant4
565,NA,38737,32,292.5|40||80,442.5|140|40|80,NA,Graduated High School,1580388406627,13,male,English,NA,NA,212.5|180|150|200,512.5|230|150|100,NA,NA,NA,NA,NA,NA,94|19|76|10,Thu Jan 30 2020 12:24:16 GMT+0000 (GMT),1580387056151,22.507933333333334,train2,2,g|gb|bg|b,participant4
565,NA,36936,32,414.6860267752737|160||40,473.54530233749404|120|80|40,NA,Graduated High School,1580388406627,13,male,English,NA,NA,362.5|230|50|100,NA,NA,NA,NA,NA,NA,NA,100|100|100|100,Thu Jan 30 2020 12:24:16 GMT+0000 (GMT),1580387056151,22.507933333333334,train3,3,bg|gb|b|g,participant4
565,NA,32985,32,444.5346033651316|78.33333333333331||80,445.0788051660943|158.33333333333331|40|80,NA,Graduated High School,1580388406627,13,male,English,NA,NA,seesaw,NA,NA,NA,NA,NA,NA,NA,100|100|100|100,Thu Jan 30 2020 12:24:16 GMT+0000 (GMT),1580387056151,22.507933333333334,train4,4,b|bg|g|gb,participant4
565,How acceptable is the utterance below as an informative description of the picture?,19770|29340|38371|46238,32,335|160|80|40,375|100|40|80,NA,Graduated High School,1580388406627,13,male,English,completely inacceptable,completely acceptable,362.5|230|75|100,NA,images/group2/S59-1007.jpg,NA,"If the <b>blue</b> block <b>will</b> touch the ground, the <b>green</b> block <b>will</b> also touch the ground.",The <b>green</b> block <b>will</b> touch the ground.,The <b>blue</b> block <b>will</b> touch the ground.,"If the <b>green</b> block <b>will</b> touch the ground, the <b>blue</b> block <b>will</b> also touch the ground.",21|14|93|100,Thu Jan 30 2020 12:24:16 GMT+0000 (GMT),1580387056151,22.507933333333334,slider_main,1,bg|g|b|gb,participant4
565,How acceptable is the utterance below as an informative description of the picture?,16641|21339|29094|33835,32,292.5|140|40|80,437.5|140|40|80,NA,Graduated High School,1580388406627,13,male,English,completely inacceptable,completely acceptable,362.5|230|150|100,NA,images/group2/S57-1007.jpg,NA,"If the <b>blue</b> block <b>will</b> touch the ground, the <b>green</b> block <b>will</b> also touch the ground.","If the <b>green</b> block <b>will</b> touch the ground, the <b>blue</b> block <b>will</b> also touch the ground.",The <b>blue</b> block <b>will</b> touch the ground.,The <b>green</b> block <b>will</b> touch the ground.,78|81|79|82,Thu Jan 30 2020 12:24:16 GMT+0000 (GMT),1580387056151,22.507933333333334,slider_main,2,bg|gb|b|g,participant4
565,How acceptable is the utterance below as an informative description of the picture?,26036|31322|44431|50649,32,320|140|40|80,400|140|40|80,NA,Graduated High School,1580388406627,13,male,English,completely inacceptable,completely acceptable,300|230|50|100,425|230|50|100,images/group2/S63-1039.jpg,NA,"If the <b>green</b> block <b>will</b> touch the ground, the <b>blue</b> block <b>will</b> also touch the ground.",The <b>blue</b> block <b>will</b> touch the ground.,"If the <b>blue</b> block <b>will</b> touch the ground, the <b>green</b> block <b>will</b> also touch the ground.",The <b>green</b> block <b>will</b> touch the ground.,97|85|97|87,Thu Jan 30 2020 12:24:16 GMT+0000 (GMT),1580387056151,22.507933333333334,slider_main,3,gb|b|bg|g,participant4
565,How acceptable is the utterance below as an informative description of the picture?,46001|54324|61244|70577,32,292.5|40|40|80,432.5|40|40|80,NA,Graduated High School,1580388406627,13,male,English,completely inacceptable,completely acceptable,250|180|75|200,475|180|75|200,images/group2/S1-121.jpg,NA,"If the <b>blue</b> block <b>will</b> touch the ground, the <b>green</b> block <b>will</b> also touch the ground.",The <b>blue</b> block <b>will</b> touch the ground.,The <b>green</b> block <b>will</b> touch the ground.,"If the <b>green</b> block <b>will</b> touch the ground, the <b>blue</b> block <b>will</b> also touch the ground.",60|78|78|46,Thu Jan 30 2020 12:24:16 GMT+0000 (GMT),1580387056151,22.507933333333334,slider_main,4,bg|b|g|gb,participant4
565,How acceptable is the utterance below as an informative description of the picture?,49341|55343|59824|65892,32,362.5|138.33333333333331|80|40,362.5|178.33333333333331|80|40,NA,Graduated High School,1580388406627,13,male,English,completely inacceptable,completely acceptable,seesaw,NA,images/group2/S42-806.jpg,NA,"If the <b>green</b> block <b>will</b> touch the ground, the <b>blue</b> block <b>will</b> also touch the ground.",The <b>blue</b> block <b>will</b> touch the ground.,The <b>green</b> block <b>will</b> touch the ground.,"If the <b>blue</b> block <b>will</b> touch the ground, the <b>green</b> block <b>will</b> also touch the ground.",81|74|76|100,Thu Jan 30 2020 12:24:16 GMT+0000 (GMT),1580387056151,22.507933333333334,slider_main,5,gb|b|g|bg,participant4
565,How acceptable is the utterance below as an informative description of the picture?,30643|41606|48847|51722,32,282.5|140|40|80,432.5|140|40|80,NA,Graduated High School,1580388406627,13,male,English,completely inacceptable,completely acceptable,362.5|230|150|100,NA,images/group2/S12-203.jpg,NA,"If the <b>green</b> block <b>will</b> touch the ground, the <b>blue</b> block <b>will</b> also touch the ground.","If the <b>blue</b> block <b>will</b> touch the ground, the <b>green</b> block <b>will</b> also touch the ground.",The <b>blue</b> block <b>will</b> touch the ground.,The <b>green</b> block <b>will</b> touch the ground.,61|44|77|74,Thu Jan 30 2020 12:24:16 GMT+0000 (GMT),1580387056151,22.507933333333334,slider_main,6,gb|bg|b|g,participant4
565,How acceptable is the utterance below as an informative description of the picture?,25634|31184|36560|42485,32,377.5|120|80|40,347.5|160|80|40,NA,Graduated High School,1580388406627,13,male,English,completely inacceptable,completely acceptable,362.5|230|150|100,NA,images/group2/S30-805-dep.jpg,NA,"If the <b>green</b> block <b>will</b> touch the ground, the <b>blue</b> block <b>will</b> also touch the ground.",The <b>green</b> block <b>will</b> touch the ground.,The <b>blue</b> block <b>will</b> touch the ground.,"If the <b>blue</b> block <b>will</b> touch the ground, the <b>green</b> block <b>will</b> also touch the ground.",10|92|0|100,Thu Jan 30 2020 12:24:16 GMT+0000 (GMT),1580387056151,22.507933333333334,slider_main,7,gb|g|b|bg,participant4
565,How acceptable is the utterance below as an informative description of the picture?,19043|22617|28439|32457,32,408.5|154.33333333333331|80|40,328.5|154.33333333333331|80|40,NA,Graduated High School,1580388406627,13,male,English,completely inacceptable,completely acceptable,seesaw,NA,images/group2/S97-1674.jpg,NA,The <b>blue</b> block <b>will</b> touch the ground.,The <b>green</b> block <b>will</b> touch the ground.,"If the <b>green</b> block <b>will</b> touch the ground, the <b>blue</b> block <b>will</b> also touch the ground.","If the <b>blue</b> block <b>will</b> touch the ground, the <b>green</b> block <b>will</b> also touch the ground.",71|79|90|92,Thu Jan 30 2020 12:24:16 GMT+0000 (GMT),1580387056151,22.507933333333334,slider_main,8,b|g|gb|bg,participant4
565,How acceptable is the utterance below as an informative description of the picture?,19277|23693|27959|32106,32,287.5|140|40|80,437.5|140|40|80,NA,Graduated High School,1580388406627,13,male,English,completely inacceptable,completely acceptable,212.5|230|150|100,512.5|230|150|100,images/group2/S83-1609.jpg,NA,"If the <b>blue</b> block <b>will</b> touch the ground, the <b>green</b> block <b>will</b> also touch the ground.",The <b>green</b> block <b>will</b> touch the ground.,"If the <b>green</b> block <b>will</b> touch the ground, the <b>blue</b> block <b>will</b> also touch the ground.",The <b>blue</b> block <b>will</b> touch the ground.,37|82|38|76,Thu Jan 30 2020 12:24:16 GMT+0000 (GMT),1580387056151,22.507933333333334,slider_main,9,bg|g|gb|b,participant4
565,How acceptable is the utterance below as an informative description of the picture?,16255|23814|27857|34534,32,335|160|80|40,365|120|80|40,NA,Graduated High School,1580388406627,13,male,English,completely inacceptable,completely acceptable,362.5|230|75|100,NA,images/group2/S54-806.jpg,NA,"If the <b>blue</b> block <b>will</b> touch the ground, the <b>green</b> block <b>will</b> also touch the ground.","If the <b>green</b> block <b>will</b> touch the ground, the <b>blue</b> block <b>will</b> also touch the ground.",The <b>blue</b> block <b>will</b> touch the ground.,The <b>green</b> block <b>will</b> touch the ground.,29|100|93|20,Thu Jan 30 2020 12:24:16 GMT+0000 (GMT),1580387056151,22.507933333333334,slider_main,10,bg|gb|b|g,participant4
565,How acceptable is the utterance below as an informative description of the picture?,18728|28967|37592|44154,32,292.5|40|40|80,442.5|140|40|80,NA,Graduated High School,1580388406627,13,male,English,completely inacceptable,completely acceptable,250|180|75|200,475|230|75|100,images/group2/S10-203.jpg,NA,The <b>blue</b> block <b>will</b> touch the ground.,"If the <b>blue</b> block <b>will</b> touch the ground, the <b>green</b> block <b>will</b> also touch the ground.","If the <b>green</b> block <b>will</b> touch the ground, the <b>blue</b> block <b>will</b> also touch the ground.",The <b>green</b> block <b>will</b> touch the ground.,37|40|64|86,Thu Jan 30 2020 12:24:16 GMT+0000 (GMT),1580387056151,22.507933333333334,slider_main,11,b|bg|gb|g,participant4
565,How acceptable is the utterance below as an informative description of the picture?,26783|40554|44375|49462,32,250|160|80|40,400|40|40|80,NA,Graduated High School,1580388406627,13,male,English,completely inacceptable,completely acceptable,287.5|230|75|100,437.5|180|75|200,images/group2/S93-1674.jpg,NA,"If the <b>green</b> block <b>will</b> touch the ground, the <b>blue</b> block <b>will</b> also touch the ground.","If the <b>blue</b> block <b>will</b> touch the ground, the <b>green</b> block <b>will</b> also touch the ground.",The <b>blue</b> block <b>will</b> touch the ground.,The <b>green</b> block <b>will</b> touch the ground.,5|64|77|43,Thu Jan 30 2020 12:24:16 GMT+0000 (GMT),1580387056151,22.507933333333334,slider_main,12,gb|bg|b|g,participant4
565,How acceptable is the utterance below as an informative description of the picture?,20178|25312|31932|46679,32,317.5|140|40|80,417.5|140|40|80,NA,Graduated High School,1580388406627,13,male,English,completely inacceptable,completely acceptable,237.5|230|150|100,487.5|230|150|100,images/group2/S8-202.jpg,NA,"If the <b>green</b> block <b>will</b> touch the ground, the <b>blue</b> block <b>will</b> also touch the ground.",The <b>green</b> block <b>will</b> touch the ground.,The <b>blue</b> block <b>will</b> touch the ground.,"If the <b>blue</b> block <b>will</b> touch the ground, the <b>green</b> block <b>will</b> also touch the ground.",67|88|36|71,Thu Jan 30 2020 12:24:16 GMT+0000 (GMT),1580387056151,22.507933333333334,slider_main,13,gb|g|b|bg,participant4
565,How acceptable is the utterance below as an informative description of the picture?,31319|37786|44158|50395,32,292.5|40|40|80,437.5|140|40|80,NA,Graduated High School,1580388406627,13,male,English,completely inacceptable,completely acceptable,250|180|75|200,475|230|75|100,images/group2/S20-468.jpg,NA,The <b>green</b> block <b>will</b> touch the ground.,"If the <b>green</b> block <b>will</b> touch the ground, the <b>blue</b> block <b>will</b> also touch the ground.",The <b>blue</b> block <b>will</b> touch the ground.,"If the <b>blue</b> block <b>will</b> touch the ground, the <b>green</b> block <b>will</b> also touch the ground.",100|61|58|62,Thu Jan 30 2020 12:24:16 GMT+0000 (GMT),1580387056151,22.507933333333334,slider_main,14,g|gb|b|bg,participant4
565,How acceptable is the utterance below as an informative description of the picture?,18392|30158|35837|40421,32,262.5|178.33333333333331|80|40,462.5|178.33333333333331|80|40,NA,Graduated High School,1580388406627,13,male,English,completely inacceptable,completely acceptable,seesaw,NA,images/group2/S89-1642-dep.jpg,NA,"If the <b>blue</b> block <b>will</b> touch the ground, the <b>green</b> block <b>will</b> also touch the ground.",The <b>green</b> block <b>will</b> touch the ground.,"If the <b>green</b> block <b>will</b> touch the ground, the <b>blue</b> block <b>will</b> also touch the ground.",The <b>blue</b> block <b>will</b> touch the ground.,97|99|99|99,Thu Jan 30 2020 12:24:16 GMT+0000 (GMT),1580387056151,22.507933333333334,slider_main,15,bg|g|gb|b,participant4
565,How acceptable is the utterance below as an informative description of the picture?,9246|14024|20135|31707,32,370|100|40|80,335|160|80|40,NA,Graduated High School,1580388406627,13,male,English,completely inacceptable,completely acceptable,362.5|230|75|100,NA,images/group2/S44-806.jpg,NA,The <b>green</b> block <b>will</b> touch the ground.,The <b>blue</b> block <b>will</b> touch the ground.,"If the <b>blue</b> block <b>will</b> touch the ground, the <b>green</b> block <b>will</b> also touch the ground.","If the <b>green</b> block <b>will</b> touch the ground, the <b>blue</b> block <b>will</b> also touch the ground.",97|4|100|3,Thu Jan 30 2020 12:24:16 GMT+0000 (GMT),1580387056151,22.507933333333334,slider_main,16,g|b|bg|gb,participant4
565,How acceptable is the utterance below as an informative description of the picture?,7683|22480|26329|34307,32,282.5|40|40|80,442.5|140|40|80,NA,Graduated High School,1580388406627,13,male,English,completely inacceptable,completely acceptable,250|180|75|200,475|230|75|100,images/group2/S32-806.jpg,NA,The <b>green</b> block <b>will</b> touch the ground.,"If the <b>blue</b> block <b>will</b> touch the ground, the <b>green</b> block <b>will</b> also touch the ground.",The <b>blue</b> block <b>will</b> touch the ground.,"If the <b>green</b> block <b>will</b> touch the ground, the <b>blue</b> block <b>will</b> also touch the ground.",60|26|23|32,Thu Jan 30 2020 12:24:16 GMT+0000 (GMT),1580387056151,22.507933333333334,slider_main,17,g|bg|b|gb,participant4
565,How acceptable is the utterance below as an informative description of the picture?,9767|16092|24890|34198,32,292.5|40|40|80,437.5|40|40|80,NA,Graduated High School,1580388406627,13,male,English,completely inacceptable,completely acceptable,250|180|75|200,475|180|75|200,images/group2/S15-443.jpg,NA,The <b>green</b> block <b>will</b> touch the ground.,"If the <b>blue</b> block <b>will</b> touch the ground, the <b>green</b> block <b>will</b> also touch the ground.","If the <b>green</b> block <b>will</b> touch the ground, the <b>blue</b> block <b>will</b> also touch the ground.",The <b>blue</b> block <b>will</b> touch the ground.,100|59|78|58,Thu Jan 30 2020 12:24:16 GMT+0000 (GMT),1580387056151,22.507933333333334,slider_main,18,g|bg|gb|b,participant4
565,How acceptable is the utterance below as an informative description of the picture?,11789|17623|21707|27147,32,292.5|140|40|80,432.5|140|40|80,NA,Graduated High School,1580388406627,13,male,English,completely inacceptable,completely acceptable,362.5|230|150|100,NA,images/group2/S30-805.jpg,NA,"If the <b>green</b> block <b>will</b> touch the ground, the <b>blue</b> block <b>will</b> also touch the ground.",The <b>green</b> block <b>will</b> touch the ground.,The <b>blue</b> block <b>will</b> touch the ground.,"If the <b>blue</b> block <b>will</b> touch the ground, the <b>green</b> block <b>will</b> also touch the ground.",10|26|23|15,Thu Jan 30 2020 12:24:16 GMT+0000 (GMT),1580387056151,22.507933333333334,slider_main,19,gb|g|b|bg,participant4
565,How acceptable is the utterance below as an informative description of the picture?,8716|18653|25165|31278,32,282.5|140|40|80,437.5|140|40|80,NA,Graduated High School,1580388406627,13,male,English,completely inacceptable,completely acceptable,362.5|230|150|100,NA,images/group2/S22-468.jpg,NA,"If the <b>green</b> block <b>will</b> touch the ground, the <b>blue</b> block <b>will</b> also touch the ground.",The <b>green</b> block <b>will</b> touch the ground.,"If the <b>blue</b> block <b>will</b> touch the ground, the <b>green</b> block <b>will</b> also touch the ground.",The <b>blue</b> block <b>will</b> touch the ground.,19|100|14|70,Thu Jan 30 2020 12:24:16 GMT+0000 (GMT),1580387056151,22.507933333333334,slider_main,20,gb|g|bg|b,participant4
565,How acceptable is the utterance below as an informative description of the picture?,10466|14632|19026|24309,32,287.5|140|40|80,437.5|140|40|80,NA,Graduated High School,1580388406627,13,male,English,completely inacceptable,completely acceptable,362.5|230|150|100,NA,images/group2/S89-1642.jpg,NA,"If the <b>blue</b> block <b>will</b> touch the ground, the <b>green</b> block <b>will</b> also touch the ground.","If the <b>green</b> block <b>will</b> touch the ground, the <b>blue</b> block <b>will</b> also touch the ground.",The <b>green</b> block <b>will</b> touch the ground.,The <b>blue</b> block <b>will</b> touch the ground.,20|21|62|73,Thu Jan 30 2020 12:24:16 GMT+0000 (GMT),1580387056151,22.507933333333334,slider_main,21,bg|gb|g|b,participant4
565,How acceptable is the utterance below as an informative description of the picture?,9169|13371|16744|21440,32,252.5|178.33333333333331|80|40,472.5|178.33333333333331|80|40,NA,Graduated High School,1580388406627,13,male,English,completely inacceptable,completely acceptable,seesaw,NA,images/group2/S7-130-dep.jpg,NA,"If the <b>green</b> block <b>will</b> touch the ground, the <b>blue</b> block <b>will</b> also touch the ground.",The <b>blue</b> block <b>will</b> touch the ground.,The <b>green</b> block <b>will</b> touch the ground.,"If the <b>blue</b> block <b>will</b> touch the ground, the <b>green</b> block <b>will</b> also touch the ground.",100|100|100|100,Thu Jan 30 2020 12:24:16 GMT+0000 (GMT),1580387056151,22.507933333333334,slider_main,22,gb|b|g|bg,participant4
565,How acceptable is the utterance below as an informative description of the picture?,11644|16126|24213|28869,32,302.5|160|80|40,417.5|40|40|80,NA,Graduated High School,1580388406627,13,male,English,completely inacceptable,completely acceptable,275|230|75|100,450|180|75|200,images/group2/S34-806.jpg,NA,"If the <b>blue</b> block <b>will</b> touch the ground, the <b>green</b> block <b>will</b> also touch the ground.",The <b>blue</b> block <b>will</b> touch the ground.,"If the <b>green</b> block <b>will</b> touch the ground, the <b>blue</b> block <b>will</b> also touch the ground.",The <b>green</b> block <b>will</b> touch the ground.,98|31|58|34,Thu Jan 30 2020 12:24:16 GMT+0000 (GMT),1580387056151,22.507933333333334,slider_main,23,bg|b|gb|g,participant4
565,How acceptable is the utterance below as an informative description of the picture?,9450|14241|18960|24214,32,282.5|140|40|80,442.5|140|40|80,NA,Graduated High School,1580388406627,13,male,English,completely inacceptable,completely acceptable,362.5|230|150|100,NA,images/group2/S7-130.jpg,NA,"If the <b>blue</b> block <b>will</b> touch the ground, the <b>green</b> block <b>will</b> also touch the ground.",The <b>blue</b> block <b>will</b> touch the ground.,The <b>green</b> block <b>will</b> touch the ground.,"If the <b>green</b> block <b>will</b> touch the ground, the <b>blue</b> block <b>will</b> also touch the ground.",39|94|93|42,Thu Jan 30 2020 12:24:16 GMT+0000 (GMT),1580387056151,22.507933333333334,slider_main,24,bg|b|g|gb,participant4
565,How acceptable is the utterance below as an informative description of the picture?,5616|11899|17155|23959,32,282.5|140|40|80,437.5|160|80|40,NA,Graduated High School,1580388406627,13,male,English,completely inacceptable,completely acceptable,250|230|75|100,475|230|75|100,images/group2/S55-1006.jpg,NA,The <b>green</b> block <b>will</b> touch the ground.,The <b>blue</b> block <b>will</b> touch the ground.,"If the <b>green</b> block <b>will</b> touch the ground, the <b>blue</b> block <b>will</b> also touch the ground.","If the <b>blue</b> block <b>will</b> touch the ground, the <b>green</b> block <b>will</b> also touch the ground.",11|74|21|24,Thu Jan 30 2020 12:24:16 GMT+0000 (GMT),1580387056151,22.507933333333334,slider_main,25,g|b|gb|bg,participant4
564,NA,66017,51,280|140||80,425|160|80|40,"Initially, I was glossing over the fact that the ""if"" statements were wrong. I was answering affirmatively if they ensconced the falling of both bricks for example, if they were both expected to fall. Eventually, I realized that I should be answering in the negative when the statement contained false consequences. (What this brick does has nothing to do with what that one does.)",Graduated High School,1580387848218,13,male,English,NA,NA,250|230|50|100,462.5|230|75|100,NA,NA,NA,NA,NA,NA,89|43|93|37,Thu Jan 30 2020 06:20:31 GMT-0600 (Central Standard Time),1580386831240,16.949633333333335,train1,1,g|bg|b|gb,participant5
564,NA,38147,51,292.5|40||80,442.5|140|40|80,"Initially, I was glossing over the fact that the ""if"" statements were wrong. I was answering affirmatively if they ensconced the falling of both bricks for example, if they were both expected to fall. Eventually, I realized that I should be answering in the negative when the statement contained false consequences. (What this brick does has nothing to do with what that one does.)",Graduated High School,1580387848218,13,male,English,NA,NA,212.5|180|150|200,512.5|230|150|100,NA,NA,NA,NA,NA,NA,100|0|0|0,Thu Jan 30 2020 06:20:31 GMT-0600 (Central Standard Time),1580386831240,16.949633333333335,train2,2,b|bg|gb|g,participant5
564,NA,34649,51,388.48412743887536|160||40,380.2526618929128|120|80|40,"Initially, I was glossing over the fact that the ""if"" statements were wrong. I was answering affirmatively if they ensconced the falling of both bricks for example, if they were both expected to fall. Eventually, I realized that I should be answering in the negative when the statement contained false consequences. (What this brick does has nothing to do with what that one does.)",Graduated High School,1580387848218,13,male,English,NA,NA,362.5|230|50|100,NA,NA,NA,NA,NA,NA,NA,100|100|100|100,Thu Jan 30 2020 06:20:31 GMT-0600 (Central Standard Time),1580386831240,16.949633333333335,train3,3,b|bg|gb|g,participant5
564,NA,36800,51,488.8898158873316|78.33333333333331||80,455.28197387837986|158.33333333333331|40|80,"Initially, I was glossing over the fact that the ""if"" statements were wrong. I was answering affirmatively if they ensconced the falling of both bricks for example, if they were both expected to fall. Eventually, I realized that I should be answering in the negative when the statement contained false consequences. (What this brick does has nothing to do with what that one does.)",Graduated High School,1580387848218,13,male,English,NA,NA,seesaw,NA,NA,NA,NA,NA,NA,NA,84|59|100|100,Thu Jan 30 2020 06:20:31 GMT-0600 (Central Standard Time),1580386831240,16.949633333333335,train4,4,g|bg|b|gb,participant5
564,How acceptable is the utterance below as an informative description of the picture?,23659|36625|41193|45057,51,292.5|40|40|80,437.5|140|40|80,"Initially, I was glossing over the fact that the ""if"" statements were wrong. I was answering affirmatively if they ensconced the falling of both bricks for example, if they were both expected to fall. Eventually, I realized that I should be answering in the negative when the statement contained false consequences. (What this brick does has nothing to do with what that one does.)",Graduated High School,1580387848218,13,male,English,completely inacceptable,completely acceptable,250|180|75|200,475|230|75|100,images/group1/S20-468.jpg,NA,"If the <b>blue</b> block <b>will</b> touch the ground, the <b>green</b> block <b>will</b> also touch the ground.","If the <b>green</b> block <b>will</b> touch the ground, the <b>blue</b> block <b>will</b> also touch the ground.",The <b>blue</b> block <b>will</b> touch the ground.,The <b>green</b> block <b>will</b> touch the ground.,27|36|78|36,Thu Jan 30 2020 06:20:31 GMT-0600 (Central Standard Time),1580386831240,16.949633333333335,slider_main,1,bg|gb|b|g,participant5
564,How acceptable is the utterance below as an informative description of the picture?,12896|16957|21285|25980,51,317.5|140|40|80,417.5|140|40|80,"Initially, I was glossing over the fact that the ""if"" statements were wrong. I was answering affirmatively if they ensconced the falling of both bricks for example, if they were both expected to fall. Eventually, I realized that I should be answering in the negative when the statement contained false consequences. (What this brick does has nothing to do with what that one does.)",Graduated High School,1580387848218,13,male,English,completely inacceptable,completely acceptable,237.5|230|150|100,487.5|230|150|100,images/group1/S8-202.jpg,NA,"If the <b>green</b> block <b>will</b> touch the ground, the <b>blue</b> block <b>will</b> also touch the ground.","If the <b>blue</b> block <b>will</b> touch the ground, the <b>green</b> block <b>will</b> also touch the ground.",The <b>green</b> block <b>will</b> touch the ground.,The <b>blue</b> block <b>will</b> touch the ground.,13|12|19|96,Thu Jan 30 2020 06:20:31 GMT-0600 (Central Standard Time),1580386831240,16.949633333333335,slider_main,2,gb|bg|g|b,participant5
564,How acceptable is the utterance below as an informative description of the picture?,11686|14277|16885|21133,51,370|100|40|80,335|160|80|40,"Initially, I was glossing over the fact that the ""if"" statements were wrong. I was answering affirmatively if they ensconced the falling of both bricks for example, if they were both expected to fall. Eventually, I realized that I should be answering in the negative when the statement contained false consequences. (What this brick does has nothing to do with what that one does.)",Graduated High School,1580387848218,13,male,English,completely inacceptable,completely acceptable,362.5|230|75|100,NA,images/group1/S44-806.jpg,NA,"If the <b>blue</b> block <b>will</b> touch the ground, the <b>green</b> block <b>will</b> also touch the ground.",The <b>blue</b> block <b>will</b> touch the ground.,The <b>green</b> block <b>will</b> touch the ground.,"If the <b>green</b> block <b>will</b> touch the ground, the <b>blue</b> block <b>will</b> also touch the ground.",0|0|0|0,Thu Jan 30 2020 06:20:31 GMT-0600 (Central Standard Time),1580386831240,16.949633333333335,slider_main,3,bg|b|g|gb,participant5
564,How acceptable is the utterance below as an informative description of the picture?,8974|11989|15133|19582,51,302.5|160|80|40,417.5|40|40|80,"Initially, I was glossing over the fact that the ""if"" statements were wrong. I was answering affirmatively if they ensconced the falling of both bricks for example, if they were both expected to fall. Eventually, I realized that I should be answering in the negative when the statement contained false consequences. (What this brick does has nothing to do with what that one does.)",Graduated High School,1580387848218,13,male,English,completely inacceptable,completely acceptable,275|230|75|100,450|180|75|200,images/group1/S34-806.jpg,NA,"If the <b>blue</b> block <b>will</b> touch the ground, the <b>green</b> block <b>will</b> also touch the ground.",The <b>green</b> block <b>will</b> touch the ground.,The <b>blue</b> block <b>will</b> touch the ground.,"If the <b>green</b> block <b>will</b> touch the ground, the <b>blue</b> block <b>will</b> also touch the ground.",0|0|0|0,Thu Jan 30 2020 06:20:31 GMT-0600 (Central Standard Time),1580386831240,16.949633333333335,slider_main,4,bg|g|b|gb,participant5
564,How acceptable is the utterance below as an informative description of the picture?,12831|16973|19861|24005,51,335|160|80|40,375|100|40|80,"Initially, I was glossing over the fact that the ""if"" statements were wrong. I was answering affirmatively if they ensconced the falling of both bricks for example, if they were both expected to fall. Eventually, I realized that I should be answering in the negative when the statement contained false consequences. (What this brick does has nothing to do with what that one does.)",Graduated High School,1580387848218,13,male,English,completely inacceptable,completely acceptable,362.5|230|75|100,NA,images/group1/S59-1007.jpg,NA,"If the <b>green</b> block <b>will</b> touch the ground, the <b>blue</b> block <b>will</b> also touch the ground.",The <b>green</b> block <b>will</b> touch the ground.,The <b>blue</b> block <b>will</b> touch the ground.,"If the <b>blue</b> block <b>will</b> touch the ground, the <b>green</b> block <b>will</b> also touch the ground.",0|100|0|0,Thu Jan 30 2020 06:20:31 GMT-0600 (Central Standard Time),1580386831240,16.949633333333335,slider_main,5,gb|g|b|bg,participant5
564,How acceptable is the utterance below as an informative description of the picture?,16800|21144|26032|28689,51,292.5|40|40|80,432.5|40|40|80,"Initially, I was glossing over the fact that the ""if"" statements were wrong. I was answering affirmatively if they ensconced the falling of both bricks for example, if they were both expected to fall. Eventually, I realized that I should be answering in the negative when the statement contained false consequences. (What this brick does has nothing to do with what that one does.)",Graduated High School,1580387848218,13,male,English,completely inacceptable,completely acceptable,250|180|75|200,475|180|75|200,images/group1/S1-121.jpg,NA,"If the <b>green</b> block <b>will</b> touch the ground, the <b>blue</b> block <b>will</b> also touch the ground.",The <b>green</b> block <b>will</b> touch the ground.,"If the <b>blue</b> block <b>will</b> touch the ground, the <b>green</b> block <b>will</b> also touch the ground.",The <b>blue</b> block <b>will</b> touch the ground.,70|67|70|72,Thu Jan 30 2020 06:20:31 GMT-0600 (Central Standard Time),1580386831240,16.949633333333335,slider_main,6,gb|g|bg|b,participant5
564,How acceptable is the utterance below as an informative description of the picture?,4997|7421|10908|13372,51,377.5|120|80|40,347.5|160|80|40,"Initially, I was glossing over the fact that the ""if"" statements were wrong. I was answering affirmatively if they ensconced the falling of both bricks for example, if they were both expected to fall. Eventually, I realized that I should be answering in the negative when the statement contained false consequences. (What this brick does has nothing to do with what that one does.)",Graduated High School,1580387848218,13,male,English,completely inacceptable,completely acceptable,362.5|230|150|100,NA,images/group1/S30-805-dep.jpg,NA,"If the <b>green</b> block <b>will</b> touch the ground, the <b>blue</b> block <b>will</b> also touch the ground.","If the <b>blue</b> block <b>will</b> touch the ground, the <b>green</b> block <b>will</b> also touch the ground.",The <b>green</b> block <b>will</b> touch the ground.,The <b>blue</b> block <b>will</b> touch the ground.,0|4|0|0,Thu Jan 30 2020 06:20:31 GMT-0600 (Central Standard Time),1580386831240,16.949633333333335,slider_main,7,gb|bg|g|b,participant5
564,How acceptable is the utterance below as an informative description of the picture?,6585|18136|24120|29297,51,408.5|154.33333333333331|80|40,328.5|154.33333333333331|80|40,"Initially, I was glossing over the fact that the ""if"" statements were wrong. I was answering affirmatively if they ensconced the falling of both bricks for example, if they were both expected to fall. Eventually, I realized that I should be answering in the negative when the statement contained false consequences. (What this brick does has nothing to do with what that one does.)",Graduated High School,1580387848218,13,male,English,completely inacceptable,completely acceptable,seesaw,NA,images/group1/S97-1674.jpg,NA,The <b>blue</b> block <b>will</b> touch the ground.,The <b>green</b> block <b>will</b> touch the ground.,"If the <b>blue</b> block <b>will</b> touch the ground, the <b>green</b> block <b>will</b> also touch the ground.","If the <b>green</b> block <b>will</b> touch the ground, the <b>blue</b> block <b>will</b> also touch the ground.",100|79|72|78,Thu Jan 30 2020 06:20:31 GMT-0600 (Central Standard Time),1580386831240,16.949633333333335,slider_main,8,b|g|bg|gb,participant5
564,How acceptable is the utterance below as an informative description of the picture?,16309|21373|25267|27635,51,320|140|40|80,400|140|40|80,"Initially, I was glossing over the fact that the ""if"" statements were wrong. I was answering affirmatively if they ensconced the falling of both bricks for example, if they were both expected to fall. Eventually, I realized that I should be answering in the negative when the statement contained false consequences. (What this brick does has nothing to do with what that one does.)",Graduated High School,1580387848218,13,male,English,completely inacceptable,completely acceptable,300|230|50|100,425|230|50|100,images/group1/S63-1039.jpg,NA,"If the <b>blue</b> block <b>will</b> touch the ground, the <b>green</b> block <b>will</b> also touch the ground.","If the <b>green</b> block <b>will</b> touch the ground, the <b>blue</b> block <b>will</b> also touch the ground.",The <b>green</b> block <b>will</b> touch the ground.,The <b>blue</b> block <b>will</b> touch the ground.,0|0|100|0,Thu Jan 30 2020 06:20:31 GMT-0600 (Central Standard Time),1580386831240,16.949633333333335,slider_main,9,bg|gb|g|b,participant5
564,How acceptable is the utterance below as an informative description of the picture?,4575|8681|13204|16916,51,282.5|140|40|80,432.5|140|40|80,"Initially, I was glossing over the fact that the ""if"" statements were wrong. I was answering affirmatively if they ensconced the falling of both bricks for example, if they were both expected to fall. Eventually, I realized that I should be answering in the negative when the statement contained false consequences. (What this brick does has nothing to do with what that one does.)",Graduated High School,1580387848218,13,male,English,completely inacceptable,completely acceptable,362.5|230|150|100,NA,images/group1/S12-203.jpg,NA,The <b>green</b> block <b>will</b> touch the ground.,The <b>blue</b> block <b>will</b> touch the ground.,"If the <b>blue</b> block <b>will</b> touch the ground, the <b>green</b> block <b>will</b> also touch the ground.","If the <b>green</b> block <b>will</b> touch the ground, the <b>blue</b> block <b>will</b> also touch the ground.",0|100|0|0,Thu Jan 30 2020 06:20:31 GMT-0600 (Central Standard Time),1580386831240,16.949633333333335,slider_main,10,g|b|bg|gb,participant5
564,How acceptable is the utterance below as an informative description of the picture?,28276|31276|34445|36813,51,362.5|138.33333333333331|80|40,362.5|178.33333333333331|80|40,"Initially, I was glossing over the fact that the ""if"" statements were wrong. I was answering affirmatively if they ensconced the falling of both bricks for example, if they were both expected to fall. Eventually, I realized that I should be answering in the negative when the statement contained false consequences. (What this brick does has nothing to do with what that one does.)",Graduated High School,1580387848218,13,male,English,completely inacceptable,completely acceptable,seesaw,NA,images/group1/S42-806.jpg,NA,"If the <b>green</b> block <b>will</b> touch the ground, the <b>blue</b> block <b>will</b> also touch the ground.",The <b>green</b> block <b>will</b> touch the ground.,"If the <b>blue</b> block <b>will</b> touch the ground, the <b>green</b> block <b>will</b> also touch the ground.",The <b>blue</b> block <b>will</b> touch the ground.,89|86|95|95,Thu Jan 30 2020 06:20:31 GMT-0600 (Central Standard Time),1580386831240,16.949633333333335,slider_main,11,gb|g|bg|b,participant5
564,How acceptable is the utterance below as an informative description of the picture?,4791|10086|13334|16166,51,292.5|140|40|80,432.5|140|40|80,"Initially, I was glossing over the fact that the ""if"" statements were wrong. I was answering affirmatively if they ensconced the falling of both bricks for example, if they were both expected to fall. Eventually, I realized that I should be answering in the negative when the statement contained false consequences. (What this brick does has nothing to do with what that one does.)",Graduated High School,1580387848218,13,male,English,completely inacceptable,completely acceptable,362.5|230|150|100,NA,images/group1/S30-805.jpg,NA,The <b>blue</b> block <b>will</b> touch the ground.,"If the <b>green</b> block <b>will</b> touch the ground, the <b>blue</b> block <b>will</b> also touch the ground.","If the <b>blue</b> block <b>will</b> touch the ground, the <b>green</b> block <b>will</b> also touch the ground.",The <b>green</b> block <b>will</b> touch the ground.,0|0|0|0,Thu Jan 30 2020 06:20:31 GMT-0600 (Central Standard Time),1580386831240,16.949633333333335,slider_main,12,b|gb|bg|g,participant5
564,How acceptable is the utterance below as an informative description of the picture?,4208|10008|16672|19392,51,292.5|40|40|80,442.5|140|40|80,"Initially, I was glossing over the fact that the ""if"" statements were wrong. I was answering affirmatively if they ensconced the falling of both bricks for example, if they were both expected to fall. Eventually, I realized that I should be answering in the negative when the statement contained false consequences. (What this brick does has nothing to do with what that one does.)",Graduated High School,1580387848218,13,male,English,completely inacceptable,completely acceptable,250|180|75|200,475|230|75|100,images/group1/S10-203.jpg,NA,The <b>green</b> block <b>will</b> touch the ground.,"If the <b>green</b> block <b>will</b> touch the ground, the <b>blue</b> block <b>will</b> also touch the ground.","If the <b>blue</b> block <b>will</b> touch the ground, the <b>green</b> block <b>will</b> also touch the ground.",The <b>blue</b> block <b>will</b> touch the ground.,0|0|0|100,Thu Jan 30 2020 06:20:31 GMT-0600 (Central Standard Time),1580386831240,16.949633333333335,slider_main,13,g|gb|bg|b,participant5
