"submission_id","QUD","RT","age","b1","b2","comments","education","endTime","experiment_id","gender","languages","optionLeft","optionRight","p1","p2","picture","question","question1","question2","question3","question4","response","startDate","startTime","timeSpent","trial_name","trial_number","utterances","participant_id"
516,NA,47368,35,"260|160|80|40","400|140|40|80",NA,"Graduated College",1579852658835,12,"female","English",NA,NA,"212.5|230|75|100","475|230|150|100",NA,NA,NA,NA,NA,NA,"88|13|22|6","Fri Jan 24 2020 07:45:04 GMT+0000 (Greenwich Mean Time)",1579851904311,12.5754,"train1",1,"bg|g|b|none","participant1"
516,NA,37674,35,"292.5|40|40|80","442.5|140|40|80",NA,"Graduated College",1579852658835,12,"female","English",NA,NA,"212.5|180|150|200","512.5|230|150|100",NA,NA,NA,NA,NA,NA,"3|34|0|61","Fri Jan 24 2020 07:45:04 GMT+0000 (Greenwich Mean Time)",1579851904311,12.5754,"train2",2,"g|bg|none|b","participant1"
516,NA,32304,35,"333.2993128603232|140|40|80","346.0335420673901|80|80|40",NA,"Graduated College",1579852658835,12,"female","English",NA,NA,"362.5|230|150|100",NA,NA,NA,NA,NA,NA,NA,"0|0|10|68","Fri Jan 24 2020 07:45:04 GMT+0000 (Greenwich Mean Time)",1579851904311,12.5754,"train3",3,"g|bg|b|none","participant1"
516,NA,27132,35,"176.5852515913187|138.33333333333331|80|40","246.60063375655713|178.33333333333331|80|40",NA,"Graduated College",1579852658835,12,"female","English",NA,NA,"seesaw",NA,NA,NA,NA,NA,NA,NA,"0|2|87|8","Fri Jan 24 2020 07:45:04 GMT+0000 (Greenwich Mean Time)",1579851904311,12.5754,"train4",4,"none|g|bg|b","participant1"
516,"Rate how likely each of the following statements is!",22792,35,"302.5|160|80|40","417.5|40|40|80",NA,"Graduated College",1579852658835,12,"female","English","impossible event","certain event","275|230|75|100","450|180|75|200","images/group2/S34-806.jpg",NA,"<b>Blue will</b> and <b>green will</b> touch the ground.","<b>Blue will</b> and <b>green will not</b> touch the ground.","<b>Blue will not</b> and <b>green will</b> touch the ground.","<b>Blue will not</b> and <b>green will not</b> touch the ground.","90|31|23|0","Fri Jan 24 2020 07:45:04 GMT+0000 (Greenwich Mean Time)",1579851904311,12.5754,"slider_main",1,"bg|b|g|none","participant1"
516,"Rate how likely each of the following statements is!",24674,35,"252.5|178.33333333333331|80|40","472.5|178.33333333333331|80|40",NA,"Graduated College",1579852658835,12,"female","English","impossible event","certain event","seesaw",NA,"images/group2/S7-130-dep.jpg",NA,"<b>Blue will not</b> and <b>green will not</b> touch the ground.","<b>Blue will</b> and <b>green will not</b> touch the ground.","<b>Blue will</b> and <b>green will</b> touch the ground.","<b>Blue will not</b> and <b>green will</b> touch the ground.","12|2|92|16","Fri Jan 24 2020 07:45:04 GMT+0000 (Greenwich Mean Time)",1579851904311,12.5754,"slider_main",2,"none|b|bg|g","participant1"
516,"Rate how likely each of the following statements is!",29839,35,"320|140|40|80","400|140|40|80",NA,"Graduated College",1579852658835,12,"female","English","impossible event","certain event","300|230|50|100","425|230|50|100","images/group2/S63-1039.jpg",NA,"<b>Blue will</b> and <b>green will not</b> touch the ground.","<b>Blue will</b> and <b>green will</b> touch the ground.","<b>Blue will not</b> and <b>green will</b> touch the ground.","<b>Blue will not</b> and <b>green will not</b> touch the ground.","1|3|0|96","Fri Jan 24 2020 07:45:04 GMT+0000 (Greenwich Mean Time)",1579851904311,12.5754,"slider_main",3,"b|bg|g|none","participant1"
516,"Rate how likely each of the following statements is!",19470,35,"287.5|140|40|80","437.5|140|40|80",NA,"Graduated College",1579852658835,12,"female","English","impossible event","certain event","362.5|230|150|100",NA,"images/group2/S89-1642.jpg",NA,"<b>Blue will</b> and <b>green will</b> touch the ground.","<b>Blue will not</b> and <b>green will</b> touch the ground.","<b>Blue will</b> and <b>green will not</b> touch the ground.","<b>Blue will not</b> and <b>green will not</b> touch the ground.","80|5|3|0","Fri Jan 24 2020 07:45:04 GMT+0000 (Greenwich Mean Time)",1579851904311,12.5754,"slider_main",4,"bg|g|b|none","participant1"
516,"Rate how likely each of the following statements is!",19151,35,"317.5|140|40|80","417.5|140|40|80",NA,"Graduated College",1579852658835,12,"female","English","impossible event","certain event","237.5|230|150|100","487.5|230|150|100","images/group2/S8-202.jpg",NA,"<b>Blue will not</b> and <b>green will not</b> touch the ground.","<b>Blue will</b> and <b>green will</b> touch the ground.","<b>Blue will</b> and <b>green will not</b> touch the ground.","<b>Blue will not</b> and <b>green will</b> touch the ground.","87|4|11|1","Fri Jan 24 2020 07:45:04 GMT+0000 (Greenwich Mean Time)",1579851904311,12.5754,"slider_main",5,"none|bg|b|g","participant1"
516,"Rate how likely each of the following statements is!",16659,35,"362.5|138.33333333333331|80|40","362.5|178.33333333333331|80|40",NA,"Graduated College",1579852658835,12,"female","English","impossible event","certain event","seesaw",NA,"images/group2/S42-806.jpg",NA,"<b>Blue will</b> and <b>green will not</b> touch the ground.","<b>Blue will not</b> and <b>green will not</b> touch the ground.","<b>Blue will not</b> and <b>green will</b> touch the ground.","<b>Blue will</b> and <b>green will</b> touch the ground.","3|90|1|18","Fri Jan 24 2020 07:45:04 GMT+0000 (Greenwich Mean Time)",1579851904311,12.5754,"slider_main",6,"b|none|g|bg","participant1"
516,"Rate how likely each of the following statements is!",19007,35,"370|100|40|80","335|160|80|40",NA,"Graduated College",1579852658835,12,"female","English","impossible event","certain event","362.5|230|75|100",NA,"images/group2/S44-806.jpg",NA,"<b>Blue will</b> and <b>green will</b> touch the ground.","<b>Blue will not</b> and <b>green will</b> touch the ground.","<b>Blue will not</b> and <b>green will not</b> touch the ground.","<b>Blue will</b> and <b>green will not</b> touch the ground.","74|79|0|0","Fri Jan 24 2020 07:45:04 GMT+0000 (Greenwich Mean Time)",1579851904311,12.5754,"slider_main",7,"bg|g|none|b","participant1"
516,"Rate how likely each of the following statements is!",20901,35,"287.5|140|40|80","437.5|140|40|80",NA,"Graduated College",1579852658835,12,"female","English","impossible event","certain event","212.5|230|150|100","512.5|230|150|100","images/group2/S83-1609.jpg",NA,"<b>Blue will not</b> and <b>green will</b> touch the ground.","<b>Blue will</b> and <b>green will</b> touch the ground.","<b>Blue will</b> and <b>green will not</b> touch the ground.","<b>Blue will not</b> and <b>green will not</b> touch the ground.","4|93|0|21","Fri Jan 24 2020 07:45:04 GMT+0000 (Greenwich Mean Time)",1579851904311,12.5754,"slider_main",8,"g|bg|b|none","participant1"
516,"Rate how likely each of the following statements is!",19517,35,"292.5|40|40|80","432.5|40|40|80",NA,"Graduated College",1579852658835,12,"female","English","impossible event","certain event","250|180|75|200","475|180|75|200","images/group2/S1-121.jpg",NA,"<b>Blue will not</b> and <b>green will</b> touch the ground.","<b>Blue will not</b> and <b>green will not</b> touch the ground.","<b>Blue will</b> and <b>green will</b> touch the ground.","<b>Blue will</b> and <b>green will not</b> touch the ground.","16|0|88|21","Fri Jan 24 2020 07:45:04 GMT+0000 (Greenwich Mean Time)",1579851904311,12.5754,"slider_main",9,"g|none|bg|b","participant1"
516,"Rate how likely each of the following statements is!",18681,35,"262.5|178.33333333333331|80|40","462.5|178.33333333333331|80|40",NA,"Graduated College",1579852658835,12,"female","English","impossible event","certain event","seesaw",NA,"images/group2/S89-1642-dep.jpg",NA,"<b>Blue will</b> and <b>green will not</b> touch the ground.","<b>Blue will</b> and <b>green will</b> touch the ground.","<b>Blue will not</b> and <b>green will not</b> touch the ground.","<b>Blue will not</b> and <b>green will</b> touch the ground.","18|28|84|9","Fri Jan 24 2020 07:45:04 GMT+0000 (Greenwich Mean Time)",1579851904311,12.5754,"slider_main",10,"b|bg|none|g","participant1"
516,"Rate how likely each of the following statements is!",21597,35,"408.5|154.33333333333331|80|40","328.5|154.33333333333331|80|40",NA,"Graduated College",1579852658835,12,"female","English","impossible event","certain event","seesaw",NA,"images/group2/S97-1674.jpg",NA,"<b>Blue will</b> and <b>green will not</b> touch the ground.","<b>Blue will</b> and <b>green will</b> touch the ground.","<b>Blue will not</b> and <b>green will</b> touch the ground.","<b>Blue will not</b> and <b>green will not</b> touch the ground.","3|10|13|83","Fri Jan 24 2020 07:45:04 GMT+0000 (Greenwich Mean Time)",1579851904311,12.5754,"slider_main",11,"b|bg|g|none","participant1"
516,"Rate how likely each of the following statements is!",24534,35,"282.5|140|40|80","437.5|160|80|40",NA,"Graduated College",1579852658835,12,"female","English","impossible event","certain event","250|230|75|100","475|230|75|100","images/group2/S55-1006.jpg",NA,"<b>Blue will not</b> and <b>green will</b> touch the ground.","<b>Blue will</b> and <b>green will not</b> touch the ground.","<b>Blue will not</b> and <b>green will not</b> touch the ground.","<b>Blue will</b> and <b>green will</b> touch the ground.","71|29|7|58","Fri Jan 24 2020 07:45:04 GMT+0000 (Greenwich Mean Time)",1579851904311,12.5754,"slider_main",12,"g|b|none|bg","participant1"
516,"Rate how likely each of the following statements is!",16208,35,"377.5|120|80|40","347.5|160|80|40",NA,"Graduated College",1579852658835,12,"female","English","impossible event","certain event","362.5|230|150|100",NA,"images/group2/S30-805-dep.jpg",NA,"<b>Blue will</b> and <b>green will not</b> touch the ground.","<b>Blue will not</b> and <b>green will</b> touch the ground.","<b>Blue will</b> and <b>green will</b> touch the ground.","<b>Blue will not</b> and <b>green will not</b> touch the ground.","0|18|0|76","Fri Jan 24 2020 07:45:04 GMT+0000 (Greenwich Mean Time)",1579851904311,12.5754,"slider_main",13,"b|g|bg|none","participant1"
516,"Rate how likely each of the following statements is!",18558,35,"282.5|140|40|80","432.5|140|40|80",NA,"Graduated College",1579852658835,12,"female","English","impossible event","certain event","362.5|230|150|100",NA,"images/group2/S12-203.jpg",NA,"<b>Blue will</b> and <b>green will</b> touch the ground.","<b>Blue will not</b> and <b>green will not</b> touch the ground.","<b>Blue will not</b> and <b>green will</b> touch the ground.","<b>Blue will</b> and <b>green will not</b> touch the ground.","71|5|18|2","Fri Jan 24 2020 07:45:04 GMT+0000 (Greenwich Mean Time)",1579851904311,12.5754,"slider_main",14,"bg|none|g|b","participant1"
516,"Rate how likely each of the following statements is!",19963,35,"335|160|80|40","365|120|80|40",NA,"Graduated College",1579852658835,12,"female","English","impossible event","certain event","362.5|230|75|100",NA,"images/group2/S54-806.jpg",NA,"<b>Blue will not</b> and <b>green will not</b> touch the ground.","<b>Blue will</b> and <b>green will</b> touch the ground.","<b>Blue will not</b> and <b>green will</b> touch the ground.","<b>Blue will</b> and <b>green will not</b> touch the ground.","73|24|5|29","Fri Jan 24 2020 07:45:04 GMT+0000 (Greenwich Mean Time)",1579851904311,12.5754,"slider_main",15,"none|bg|g|b","participant1"
516,"Rate how likely each of the following statements is!",20415,35,"292.5|40|40|80","437.5|40|40|80",NA,"Graduated College",1579852658835,12,"female","English","impossible event","certain event","250|180|75|200","475|180|75|200","images/group2/S15-443.jpg",NA,"<b>Blue will</b> and <b>green will</b> touch the ground.","<b>Blue will not</b> and <b>green will</b> touch the ground.","<b>Blue will</b> and <b>green will not</b> touch the ground.","<b>Blue will not</b> and <b>green will not</b> touch the ground.","91|29|11|4","Fri Jan 24 2020 07:45:04 GMT+0000 (Greenwich Mean Time)",1579851904311,12.5754,"slider_main",16,"bg|g|b|none","participant1"
516,"Rate how likely each of the following statements is!",19388,35,"292.5|40|40|80","442.5|140|40|80",NA,"Graduated College",1579852658835,12,"female","English","impossible event","certain event","250|180|75|200","475|230|75|100","images/group2/S10-203.jpg",NA,"<b>Blue will not</b> and <b>green will not</b> touch the ground.","<b>Blue will</b> and <b>green will not</b> touch the ground.","<b>Blue will not</b> and <b>green will</b> touch the ground.","<b>Blue will</b> and <b>green will</b> touch the ground.","5|17|27|90","Fri Jan 24 2020 07:45:04 GMT+0000 (Greenwich Mean Time)",1579851904311,12.5754,"slider_main",17,"none|b|g|bg","participant1"
516,"Rate how likely each of the following statements is!",18606,35,"282.5|140|40|80","442.5|140|40|80",NA,"Graduated College",1579852658835,12,"female","English","impossible event","certain event","362.5|230|150|100",NA,"images/group2/S7-130.jpg",NA,"<b>Blue will not</b> and <b>green will not</b> touch the ground.","<b>Blue will not</b> and <b>green will</b> touch the ground.","<b>Blue will</b> and <b>green will not</b> touch the ground.","<b>Blue will</b> and <b>green will</b> touch the ground.","3|0|0|94","Fri Jan 24 2020 07:45:04 GMT+0000 (Greenwich Mean Time)",1579851904311,12.5754,"slider_main",18,"none|g|b|bg","participant1"
516,"Rate how likely each of the following statements is!",20350,35,"282.5|140|40|80","437.5|140|40|80",NA,"Graduated College",1579852658835,12,"female","English","impossible event","certain event","362.5|230|150|100",NA,"images/group2/S22-468.jpg",NA,"<b>Blue will</b> and <b>green will</b> touch the ground.","<b>Blue will not</b> and <b>green will</b> touch the ground.","<b>Blue will</b> and <b>green will not</b> touch the ground.","<b>Blue will not</b> and <b>green will not</b> touch the ground.","89|15|0|4","Fri Jan 24 2020 07:45:04 GMT+0000 (Greenwich Mean Time)",1579851904311,12.5754,"slider_main",19,"bg|g|b|none","participant1"
516,"Rate how likely each of the following statements is!",19583,35,"282.5|40|40|80","442.5|140|40|80",NA,"Graduated College",1579852658835,12,"female","English","impossible event","certain event","250|180|75|200","475|230|75|100","images/group2/S32-806.jpg",NA,"<b>Blue will</b> and <b>green will not</b> touch the ground.","<b>Blue will</b> and <b>green will</b> touch the ground.","<b>Blue will not</b> and <b>green will not</b> touch the ground.","<b>Blue will not</b> and <b>green will</b> touch the ground.","37|82|15|28","Fri Jan 24 2020 07:45:04 GMT+0000 (Greenwich Mean Time)",1579851904311,12.5754,"slider_main",20,"b|bg|none|g","participant1"
516,"Rate how likely each of the following statements is!",17820,35,"292.5|40|40|80","437.5|140|40|80",NA,"Graduated College",1579852658835,12,"female","English","impossible event","certain event","250|180|75|200","475|230|75|100","images/group2/S20-468.jpg",NA,"<b>Blue will</b> and <b>green will</b> touch the ground.","<b>Blue will not</b> and <b>green will</b> touch the ground.","<b>Blue will not</b> and <b>green will not</b> touch the ground.","<b>Blue will</b> and <b>green will not</b> touch the ground.","80|13|1|25","Fri Jan 24 2020 07:45:04 GMT+0000 (Greenwich Mean Time)",1579851904311,12.5754,"slider_main",21,"bg|g|none|b","participant1"
516,"Rate how likely each of the following statements is!",20293,35,"250|160|80|40","400|40|40|80",NA,"Graduated College",1579852658835,12,"female","English","impossible event","certain event","287.5|230|75|100","437.5|180|75|200","images/group2/S93-1674.jpg",NA,"<b>Blue will not</b> and <b>green will</b> touch the ground.","<b>Blue will</b> and <b>green will not</b> touch the ground.","<b>Blue will not</b> and <b>green will not</b> touch the ground.","<b>Blue will</b> and <b>green will</b> touch the ground.","0|94|0|36","Fri Jan 24 2020 07:45:04 GMT+0000 (Greenwich Mean Time)",1579851904311,12.5754,"slider_main",22,"g|b|none|bg","participant1"
516,"Rate how likely each of the following statements is!",17412,35,"292.5|140|40|80","432.5|140|40|80",NA,"Graduated College",1579852658835,12,"female","English","impossible event","certain event","362.5|230|150|100",NA,"images/group2/S30-805.jpg",NA,"<b>Blue will</b> and <b>green will not</b> touch the ground.","<b>Blue will</b> and <b>green will</b> touch the ground.","<b>Blue will not</b> and <b>green will not</b> touch the ground.","<b>Blue will not</b> and <b>green will</b> touch the ground.","2|22|90|2","Fri Jan 24 2020 07:45:04 GMT+0000 (Greenwich Mean Time)",1579851904311,12.5754,"slider_main",23,"b|bg|none|g","participant1"
516,"Rate how likely each of the following statements is!",19598,35,"292.5|140|40|80","437.5|140|40|80",NA,"Graduated College",1579852658835,12,"female","English","impossible event","certain event","362.5|230|150|100",NA,"images/group2/S57-1007.jpg",NA,"<b>Blue will</b> and <b>green will</b> touch the ground.","<b>Blue will</b> and <b>green will not</b> touch the ground.","<b>Blue will not</b> and <b>green will not</b> touch the ground.","<b>Blue will not</b> and <b>green will</b> touch the ground.","18|92|3|0","Fri Jan 24 2020 07:45:04 GMT+0000 (Greenwich Mean Time)",1579851904311,12.5754,"slider_main",24,"bg|b|none|g","participant1"
516,"Rate how likely each of the following statements is!",19171,35,"335|160|80|40","375|100|40|80",NA,"Graduated College",1579852658835,12,"female","English","impossible event","certain event","362.5|230|75|100",NA,"images/group2/S59-1007.jpg",NA,"<b>Blue will not</b> and <b>green will not</b> touch the ground.","<b>Blue will not</b> and <b>green will</b> touch the ground.","<b>Blue will</b> and <b>green will</b> touch the ground.","<b>Blue will</b> and <b>green will not</b> touch the ground.","89|3|20|33","Fri Jan 24 2020 07:45:04 GMT+0000 (Greenwich Mean Time)",1579851904311,12.5754,"slider_main",25,"none|g|bg|b","participant1"
515,NA,805414,29,"287.5|140|40|80","427.5|160|80|40","sorry if i didnt finsh in time i had important phone call i may have just failed by seconds","Graduated College",1579786472455,12,"male","english",NA,NA,"262.5|230|50|100","462.5|230|50|100",NA,NA,NA,NA,NA,NA,"100|0|100|0","Thu Jan 23 2020 12:36:33 GMT+0000 (Greenwich Mean Time)",1579782993098,57.9892833333333,"train1",1,"bg|g|bg|b","participant2"
515,NA,864672,29,"292.5|40|40|80","442.5|140|40|80","sorry if i didnt finsh in time i had important phone call i may have just failed by seconds","Graduated College",1579786472455,12,"male","english",NA,NA,"212.5|180|150|200","512.5|230|150|100",NA,NA,NA,NA,NA,NA,"0|0|0|0","Thu Jan 23 2020 12:36:33 GMT+0000 (Greenwich Mean Time)",1579782993098,57.9892833333333,"train2",2,"b|bg|bg|bg","participant2"
515,NA,54181,29,"423.95117908829513|100|40|80","383.6859363050826|160|80|40","sorry if i didnt finsh in time i had important phone call i may have just failed by seconds","Graduated College",1579786472455,12,"male","english",NA,NA,"362.5|230|75|100",NA,NA,NA,NA,NA,NA,NA,"100|0|0|0","Thu Jan 23 2020 12:36:33 GMT+0000 (Greenwich Mean Time)",1579782993098,57.9892833333333,"train3",3,"b|none|none|bg","participant2"
515,NA,21330,29,"481.69014280743863|138.33333333333331|80|40","429.07222057740904|178.33333333333331|80|40","sorry if i didnt finsh in time i had important phone call i may have just failed by seconds","Graduated College",1579786472455,12,"male","english",NA,NA,"seesaw",NA,NA,NA,NA,NA,NA,NA,"0|0|0|100","Thu Jan 23 2020 12:36:33 GMT+0000 (Greenwich Mean Time)",1579782993098,57.9892833333333,"train4",4,"g|none|g|bg","participant2"
515,"Rate how likely each of the following statements is!",26011,29,"362.5|138.33333333333331|80|40","362.5|178.33333333333331|80|40","sorry if i didnt finsh in time i had important phone call i may have just failed by seconds","Graduated College",1579786472455,12,"male","english","impossible event","certain event","seesaw",NA,"images/group1/S42-806.jpg",NA,"<b>Blue will not</b> and <b>green will</b> touch the ground.","<b>Blue will</b> and <b>green will</b> touch the ground.","<b>Blue will</b> and <b>green will not</b> touch the ground.","<b>Blue will not</b> and <b>green will not</b> touch the ground.","0|0|0|100","Thu Jan 23 2020 12:36:33 GMT+0000 (Greenwich Mean Time)",1579782993098,57.9892833333333,"slider_main",1,"g|bg|b|none","participant2"
515,"Rate how likely each of the following statements is!",21138,29,"377.5|120|80|40","347.5|160|80|40","sorry if i didnt finsh in time i had important phone call i may have just failed by seconds","Graduated College",1579786472455,12,"male","english","impossible event","certain event","362.5|230|150|100",NA,"images/group1/S30-805-dep.jpg",NA,"<b>Blue will</b> and <b>green will not</b> touch the ground.","<b>Blue will</b> and <b>green will</b> touch the ground.","<b>Blue will not</b> and <b>green will not</b> touch the ground.","<b>Blue will not</b> and <b>green will</b> touch the ground.","0|0|100|0","Thu Jan 23 2020 12:36:33 GMT+0000 (Greenwich Mean Time)",1579782993098,57.9892833333333,"slider_main",2,"b|bg|none|g","participant2"
515,"Rate how likely each of the following statements is!",13541,29,"282.5|140|40|80","437.5|140|40|80","sorry if i didnt finsh in time i had important phone call i may have just failed by seconds","Graduated College",1579786472455,12,"male","english","impossible event","certain event","362.5|230|150|100",NA,"images/group1/S22-468.jpg",NA,"<b>Blue will not</b> and <b>green will not</b> touch the ground.","<b>Blue will</b> and <b>green will not</b> touch the ground.","<b>Blue will not</b> and <b>green will</b> touch the ground.","<b>Blue will</b> and <b>green will</b> touch the ground.","0|0|0|100","Thu Jan 23 2020 12:36:33 GMT+0000 (Greenwich Mean Time)",1579782993098,57.9892833333333,"slider_main",3,"none|b|g|bg","participant2"
515,"Rate how likely each of the following statements is!",326283,29,"335|160|80|40","365|120|80|40","sorry if i didnt finsh in time i had important phone call i may have just failed by seconds","Graduated College",1579786472455,12,"male","english","impossible event","certain event","362.5|230|75|100",NA,"images/group1/S54-806.jpg",NA,"<b>Blue will</b> and <b>green will</b> touch the ground.","<b>Blue will</b> and <b>green will not</b> touch the ground.","<b>Blue will not</b> and <b>green will</b> touch the ground.","<b>Blue will not</b> and <b>green will not</b> touch the ground.","0|0|0|100","Thu Jan 23 2020 12:36:33 GMT+0000 (Greenwich Mean Time)",1579782993098,57.9892833333333,"slider_main",4,"bg|b|g|none","participant2"
515,"Rate how likely each of the following statements is!",180327,29,"302.5|160|80|40","417.5|40|40|80","sorry if i didnt finsh in time i had important phone call i may have just failed by seconds","Graduated College",1579786472455,12,"male","english","impossible event","certain event","275|230|75|100","450|180|75|200","images/group1/S34-806.jpg",NA,"<b>Blue will not</b> and <b>green will</b> touch the ground.","<b>Blue will not</b> and <b>green will not</b> touch the ground.","<b>Blue will</b> and <b>green will not</b> touch the ground.","<b>Blue will</b> and <b>green will</b> touch the ground.","0|100|0|0","Thu Jan 23 2020 12:36:33 GMT+0000 (Greenwich Mean Time)",1579782993098,57.9892833333333,"slider_main",5,"g|none|b|bg","participant2"
515,"Rate how likely each of the following statements is!",25002,29,"335|160|80|40","375|100|40|80","sorry if i didnt finsh in time i had important phone call i may have just failed by seconds","Graduated College",1579786472455,12,"male","english","impossible event","certain event","362.5|230|75|100",NA,"images/group1/S59-1007.jpg",NA,"<b>Blue will</b> and <b>green will not</b> touch the ground.","<b>Blue will</b> and <b>green will</b> touch the ground.","<b>Blue will not</b> and <b>green will</b> touch the ground.","<b>Blue will not</b> and <b>green will not</b> touch the ground.","0|0|100|0","Thu Jan 23 2020 12:36:33 GMT+0000 (Greenwich Mean Time)",1579782993098,57.9892833333333,"slider_main",6,"b|bg|g|none","participant2"
515,"Rate how likely each of the following statements is!",44395,29,"282.5|140|40|80","437.5|160|80|40","sorry if i didnt finsh in time i had important phone call i may have just failed by seconds","Graduated College",1579786472455,12,"male","english","impossible event","certain event","250|230|75|100","475|230|75|100","images/group1/S55-1006.jpg",NA,"<b>Blue will</b> and <b>green will not</b> touch the ground.","<b>Blue will not</b> and <b>green will</b> touch the ground.","<b>Blue will</b> and <b>green will</b> touch the ground.","<b>Blue will not</b> and <b>green will not</b> touch the ground.","0|100|0|0","Thu Jan 23 2020 12:36:33 GMT+0000 (Greenwich Mean Time)",1579782993098,57.9892833333333,"slider_main",7,"b|g|bg|none","participant2"
515,"Rate how likely each of the following statements is!",15021,29,"317.5|140|40|80","417.5|140|40|80","sorry if i didnt finsh in time i had important phone call i may have just failed by seconds","Graduated College",1579786472455,12,"male","english","impossible event","certain event","237.5|230|150|100","487.5|230|150|100","images/group1/S8-202.jpg",NA,"<b>Blue will not</b> and <b>green will not</b> touch the ground.","<b>Blue will not</b> and <b>green will</b> touch the ground.","<b>Blue will</b> and <b>green will not</b> touch the ground.","<b>Blue will</b> and <b>green will</b> touch the ground.","0|0|100|0","Thu Jan 23 2020 12:36:33 GMT+0000 (Greenwich Mean Time)",1579782993098,57.9892833333333,"slider_main",8,"none|g|b|bg","participant2"
515,"Rate how likely each of the following statements is!",13449,29,"320|140|40|80","400|140|40|80","sorry if i didnt finsh in time i had important phone call i may have just failed by seconds","Graduated College",1579786472455,12,"male","english","impossible event","certain event","300|230|50|100","425|230|50|100","images/group1/S63-1039.jpg",NA,"<b>Blue will not</b> and <b>green will not</b> touch the ground.","<b>Blue will</b> and <b>green will</b> touch the ground.","<b>Blue will not</b> and <b>green will</b> touch the ground.","<b>Blue will</b> and <b>green will not</b> touch the ground.","0|0|100|0","Thu Jan 23 2020 12:36:33 GMT+0000 (Greenwich Mean Time)",1579782993098,57.9892833333333,"slider_main",9,"none|bg|g|b","participant2"
515,"Rate how likely each of the following statements is!",9668,29,"287.5|140|40|80","437.5|140|40|80","sorry if i didnt finsh in time i had important phone call i may have just failed by seconds","Graduated College",1579786472455,12,"male","english","impossible event","certain event","212.5|230|150|100","512.5|230|150|100","images/group1/S83-1609.jpg",NA,"<b>Blue will</b> and <b>green will not</b> touch the ground.","<b>Blue will</b> and <b>green will</b> touch the ground.","<b>Blue will not</b> and <b>green will</b> touch the ground.","<b>Blue will not</b> and <b>green will not</b> touch the ground.","0|100|0|0","Thu Jan 23 2020 12:36:33 GMT+0000 (Greenwich Mean Time)",1579782993098,57.9892833333333,"slider_main",10,"b|bg|g|none","participant2"
515,"Rate how likely each of the following statements is!",8235,29,"282.5|140|40|80","442.5|140|40|80","sorry if i didnt finsh in time i had important phone call i may have just failed by seconds","Graduated College",1579786472455,12,"male","english","impossible event","certain event","362.5|230|150|100",NA,"images/group1/S7-130.jpg",NA,"<b>Blue will</b> and <b>green will</b> touch the ground.","<b>Blue will not</b> and <b>green will not</b> touch the ground.","<b>Blue will</b> and <b>green will not</b> touch the ground.","<b>Blue will not</b> and <b>green will</b> touch the ground.","100|0|0|0","Thu Jan 23 2020 12:36:33 GMT+0000 (Greenwich Mean Time)",1579782993098,57.9892833333333,"slider_main",11,"bg|none|b|g","participant2"
515,"Rate how likely each of the following statements is!",372701,29,"287.5|140|40|80","437.5|140|40|80","sorry if i didnt finsh in time i had important phone call i may have just failed by seconds","Graduated College",1579786472455,12,"male","english","impossible event","certain event","362.5|230|150|100",NA,"images/group1/S89-1642.jpg",NA,"<b>Blue will</b> and <b>green will</b> touch the ground.","<b>Blue will not</b> and <b>green will not</b> touch the ground.","<b>Blue will</b> and <b>green will not</b> touch the ground.","<b>Blue will not</b> and <b>green will</b> touch the ground.","100|0|0|0","Thu Jan 23 2020 12:36:33 GMT+0000 (Greenwich Mean Time)",1579782993098,57.9892833333333,"slider_main",12,"bg|none|b|g","participant2"
515,"Rate how likely each of the following statements is!",35028,29,"292.5|140|40|80","432.5|140|40|80","sorry if i didnt finsh in time i had important phone call i may have just failed by seconds","Graduated College",1579786472455,12,"male","english","impossible event","certain event","362.5|230|150|100",NA,"images/group1/S30-805.jpg",NA,"<b>Blue will not</b> and <b>green will not</b> touch the ground.","<b>Blue will not</b> and <b>green will</b> touch the ground.","<b>Blue will</b> and <b>green will not</b> touch the ground.","<b>Blue will</b> and <b>green will</b> touch the ground.","100|0|0|0","Thu Jan 23 2020 12:36:33 GMT+0000 (Greenwich Mean Time)",1579782993098,57.9892833333333,"slider_main",13,"none|g|b|bg","participant2"
515,"Rate how likely each of the following statements is!",27761,29,"252.5|178.33333333333331|80|40","472.5|178.33333333333331|80|40","sorry if i didnt finsh in time i had important phone call i may have just failed by seconds","Graduated College",1579786472455,12,"male","english","impossible event","certain event","seesaw",NA,"images/group1/S7-130-dep.jpg",NA,"<b>Blue will</b> and <b>green will not</b> touch the ground.","<b>Blue will not</b> and <b>green will not</b> touch the ground.","<b>Blue will</b> and <b>green will</b> touch the ground.","<b>Blue will not</b> and <b>green will</b> touch the ground.","0|0|100|0","Thu Jan 23 2020 12:36:33 GMT+0000 (Greenwich Mean Time)",1579782993098,57.9892833333333,"slider_main",14,"b|none|bg|g","participant2"
515,"Rate how likely each of the following statements is!",19619,29,"292.5|40|40|80","437.5|140|40|80","sorry if i didnt finsh in time i had important phone call i may have just failed by seconds","Graduated College",1579786472455,12,"male","english","impossible event","certain event","250|180|75|200","475|230|75|100","images/group1/S20-468.jpg",NA,"<b>Blue will</b> and <b>green will</b> touch the ground.","<b>Blue will not</b> and <b>green will not</b> touch the ground.","<b>Blue will</b> and <b>green will not</b> touch the ground.","<b>Blue will not</b> and <b>green will</b> touch the ground.","100|0|0|0","Thu Jan 23 2020 12:36:33 GMT+0000 (Greenwich Mean Time)",1579782993098,57.9892833333333,"slider_main",15,"bg|none|b|g","participant2"
515,"Rate how likely each of the following statements is!",324700,29,"408.5|154.33333333333331|80|40","328.5|154.33333333333331|80|40","sorry if i didnt finsh in time i had important phone call i may have just failed by seconds","Graduated College",1579786472455,12,"male","english","impossible event","certain event","seesaw",NA,"images/group1/S97-1674.jpg",NA,"<b>Blue will not</b> and <b>green will</b> touch the ground.","<b>Blue will</b> and <b>green will not</b> touch the ground.","<b>Blue will</b> and <b>green will</b> touch the ground.","<b>Blue will not</b> and <b>green will not</b> touch the ground.","0|0|100|7","Thu Jan 23 2020 12:36:33 GMT+0000 (Greenwich Mean Time)",1579782993098,57.9892833333333,"slider_main",16,"g|b|bg|none","participant2"
515,"Rate how likely each of the following statements is!",25730,29,"370|100|40|80","335|160|80|40","sorry if i didnt finsh in time i had important phone call i may have just failed by seconds","Graduated College",1579786472455,12,"male","english","impossible event","certain event","362.5|230|75|100",NA,"images/group1/S44-806.jpg",NA,"<b>Blue will not</b> and <b>green will</b> touch the ground.","<b>Blue will</b> and <b>green will</b> touch the ground.","<b>Blue will</b> and <b>green will not</b> touch the ground.","<b>Blue will not</b> and <b>green will not</b> touch the ground.","0|0|0|100","Thu Jan 23 2020 12:36:33 GMT+0000 (Greenwich Mean Time)",1579782993098,57.9892833333333,"slider_main",17,"g|bg|b|none","participant2"
515,"Rate how likely each of the following statements is!",10718,29,"282.5|40|40|80","442.5|140|40|80","sorry if i didnt finsh in time i had important phone call i may have just failed by seconds","Graduated College",1579786472455,12,"male","english","impossible event","certain event","250|180|75|200","475|230|75|100","images/group1/S32-806.jpg",NA,"<b>Blue will not</b> and <b>green will</b> touch the ground.","<b>Blue will not</b> and <b>green will not</b> touch the ground.","<b>Blue will</b> and <b>green will not</b> touch the ground.","<b>Blue will</b> and <b>green will</b> touch the ground.","0|100|0|0","Thu Jan 23 2020 12:36:33 GMT+0000 (Greenwich Mean Time)",1579782993098,57.9892833333333,"slider_main",18,"g|none|b|bg","participant2"
515,"Rate how likely each of the following statements is!",7385,29,"292.5|40|40|80","437.5|40|40|80","sorry if i didnt finsh in time i had important phone call i may have just failed by seconds","Graduated College",1579786472455,12,"male","english","impossible event","certain event","250|180|75|200","475|180|75|200","images/group1/S15-443.jpg",NA,"<b>Blue will not</b> and <b>green will</b> touch the ground.","<b>Blue will</b> and <b>green will</b> touch the ground.","<b>Blue will</b> and <b>green will not</b> touch the ground.","<b>Blue will not</b> and <b>green will not</b> touch the ground.","0|100|0|0","Thu Jan 23 2020 12:36:33 GMT+0000 (Greenwich Mean Time)",1579782993098,57.9892833333333,"slider_main",19,"g|bg|b|none","participant2"
515,"Rate how likely each of the following statements is!",7907,29,"262.5|178.33333333333331|80|40","462.5|178.33333333333331|80|40","sorry if i didnt finsh in time i had important phone call i may have just failed by seconds","Graduated College",1579786472455,12,"male","english","impossible event","certain event","seesaw",NA,"images/group1/S89-1642-dep.jpg",NA,"<b>Blue will not</b> and <b>green will not</b> touch the ground.","<b>Blue will</b> and <b>green will not</b> touch the ground.","<b>Blue will</b> and <b>green will</b> touch the ground.","<b>Blue will not</b> and <b>green will</b> touch the ground.","0|0|100|0","Thu Jan 23 2020 12:36:33 GMT+0000 (Greenwich Mean Time)",1579782993098,57.9892833333333,"slider_main",20,"none|b|bg|g","participant2"
515,"Rate how likely each of the following statements is!",8528,29,"292.5|40|40|80","442.5|140|40|80","sorry if i didnt finsh in time i had important phone call i may have just failed by seconds","Graduated College",1579786472455,12,"male","english","impossible event","certain event","250|180|75|200","475|230|75|100","images/group1/S10-203.jpg",NA,"<b>Blue will</b> and <b>green will</b> touch the ground.","<b>Blue will</b> and <b>green will not</b> touch the ground.","<b>Blue will not</b> and <b>green will not</b> touch the ground.","<b>Blue will not</b> and <b>green will</b> touch the ground.","0|100|0|0","Thu Jan 23 2020 12:36:33 GMT+0000 (Greenwich Mean Time)",1579782993098,57.9892833333333,"slider_main",21,"bg|b|none|g","participant2"
515,"Rate how likely each of the following statements is!",6471,29,"292.5|40|40|80","432.5|40|40|80","sorry if i didnt finsh in time i had important phone call i may have just failed by seconds","Graduated College",1579786472455,12,"male","english","impossible event","certain event","250|180|75|200","475|180|75|200","images/group1/S1-121.jpg",NA,"<b>Blue will not</b> and <b>green will not</b> touch the ground.","<b>Blue will</b> and <b>green will not</b> touch the ground.","<b>Blue will</b> and <b>green will</b> touch the ground.","<b>Blue will not</b> and <b>green will</b> touch the ground.","0|0|100|0","Thu Jan 23 2020 12:36:33 GMT+0000 (Greenwich Mean Time)",1579782993098,57.9892833333333,"slider_main",22,"none|b|bg|g","participant2"
515,"Rate how likely each of the following statements is!",9303,29,"292.5|140|40|80","437.5|140|40|80","sorry if i didnt finsh in time i had important phone call i may have just failed by seconds","Graduated College",1579786472455,12,"male","english","impossible event","certain event","362.5|230|150|100",NA,"images/group1/S57-1007.jpg",NA,"<b>Blue will not</b> and <b>green will not</b> touch the ground.","<b>Blue will</b> and <b>green will</b> touch the ground.","<b>Blue will</b> and <b>green will not</b> touch the ground.","<b>Blue will not</b> and <b>green will</b> touch the ground.","0|0|0|100","Thu Jan 23 2020 12:36:33 GMT+0000 (Greenwich Mean Time)",1579782993098,57.9892833333333,"slider_main",23,"none|bg|b|g","participant2"
515,"Rate how likely each of the following statements is!",6623,29,"250|160|80|40","400|40|40|80","sorry if i didnt finsh in time i had important phone call i may have just failed by seconds","Graduated College",1579786472455,12,"male","english","impossible event","certain event","287.5|230|75|100","437.5|180|75|200","images/group1/S93-1674.jpg",NA,"<b>Blue will not</b> and <b>green will not</b> touch the ground.","<b>Blue will</b> and <b>green will</b> touch the ground.","<b>Blue will not</b> and <b>green will</b> touch the ground.","<b>Blue will</b> and <b>green will not</b> touch the ground.","0|100|0|0","Thu Jan 23 2020 12:36:33 GMT+0000 (Greenwich Mean Time)",1579782993098,57.9892833333333,"slider_main",24,"none|bg|g|b","participant2"
515,"Rate how likely each of the following statements is!",6840,29,"282.5|140|40|80","432.5|140|40|80","sorry if i didnt finsh in time i had important phone call i may have just failed by seconds","Graduated College",1579786472455,12,"male","english","impossible event","certain event","362.5|230|150|100",NA,"images/group1/S12-203.jpg",NA,"<b>Blue will</b> and <b>green will not</b> touch the ground.","<b>Blue will not</b> and <b>green will</b> touch the ground.","<b>Blue will</b> and <b>green will</b> touch the ground.","<b>Blue will not</b> and <b>green will not</b> touch the ground.","100|0|0|0","Thu Jan 23 2020 12:36:33 GMT+0000 (Greenwich Mean Time)",1579782993098,57.9892833333333,"slider_main",25,"b|g|bg|none","participant2"
514,NA,97413,33,"330|140|40|80","475|160|80|40",NA,"Graduated College",1579786322738,12,"male","English",NA,NA,"250|230|150|100","512.5|230|75|100",NA,NA,NA,NA,NA,NA,"25|25|80|25","Thu Jan 23 2020 12:36:20 GMT+0000 (Greenwich Mean Time)",1579782980550,55.7031333333333,"train1",1,"none|none|b|none","participant3"
514,NA,45492,33,"292.5|40|40|80","442.5|140|40|80",NA,"Graduated College",1579786322738,12,"male","English",NA,NA,"212.5|180|150|200","512.5|230|150|100",NA,NA,NA,NA,NA,NA,"65|65|90|10","Thu Jan 23 2020 12:36:20 GMT+0000 (Greenwich Mean Time)",1579782980550,55.7031333333333,"train2",2,"b|b|bg|none","participant3"
514,NA,28297,33,"367.9257765771591|120|80|40","366.2934144528605|160|80|40",NA,"Graduated College",1579786322738,12,"male","English",NA,NA,"362.5|230|75|100",NA,NA,NA,NA,NA,NA,NA,"0|0|0|100","Thu Jan 23 2020 12:36:20 GMT+0000 (Greenwich Mean Time)",1579782980550,55.7031333333333,"train3",3,"b|bg|b|none","participant3"
514,NA,121033,33,"285.2631876094148|158.33333333333331|40|80","298.39191476593663|98.33333333333331|80|40",NA,"Graduated College",1579786322738,12,"male","English",NA,NA,"seesaw",NA,NA,NA,NA,NA,NA,NA,"0|0|0|100","Thu Jan 23 2020 12:36:20 GMT+0000 (Greenwich Mean Time)",1579782980550,55.7031333333333,"train4",4,"b|g|g|bg","participant3"
514,"Rate how likely each of the following statements is!",45259,33,"287.5|140|40|80","437.5|140|40|80",NA,"Graduated College",1579786322738,12,"male","English","impossible event","certain event","212.5|230|150|100","512.5|230|150|100","images/group2/S83-1609.jpg",NA,"<b>Blue will</b> and <b>green will</b> touch the ground.","<b>Blue will not</b> and <b>green will not</b> touch the ground.","<b>Blue will not</b> and <b>green will</b> touch the ground.","<b>Blue will</b> and <b>green will not</b> touch the ground.","90|10|20|20","Thu Jan 23 2020 12:36:20 GMT+0000 (Greenwich Mean Time)",1579782980550,55.7031333333333,"slider_main",1,"bg|none|g|b","participant3"
514,"Rate how likely each of the following statements is!",39426,33,"282.5|140|40|80","437.5|160|80|40",NA,"Graduated College",1579786322738,12,"male","English","impossible event","certain event","250|230|75|100","475|230|75|100","images/group2/S55-1006.jpg",NA,"<b>Blue will</b> and <b>green will</b> touch the ground.","<b>Blue will</b> and <b>green will not</b> touch the ground.","<b>Blue will not</b> and <b>green will not</b> touch the ground.","<b>Blue will not</b> and <b>green will</b> touch the ground.","65|80|35|20","Thu Jan 23 2020 12:36:20 GMT+0000 (Greenwich Mean Time)",1579782980550,55.7031333333333,"slider_main",2,"bg|b|none|g","participant3"
514,"Rate how likely each of the following statements is!",83358,33,"250|160|80|40","400|40|40|80",NA,"Graduated College",1579786322738,12,"male","English","impossible event","certain event","287.5|230|75|100","437.5|180|75|200","images/group2/S93-1674.jpg",NA,"<b>Blue will not</b> and <b>green will</b> touch the ground.","<b>Blue will not</b> and <b>green will not</b> touch the ground.","<b>Blue will</b> and <b>green will not</b> touch the ground.","<b>Blue will</b> and <b>green will</b> touch the ground.","25|5|5|90","Thu Jan 23 2020 12:36:20 GMT+0000 (Greenwich Mean Time)",1579782980550,55.7031333333333,"slider_main",3,"g|none|b|bg","participant3"
514,"Rate how likely each of the following statements is!",24262,33,"292.5|140|40|80","432.5|140|40|80",NA,"Graduated College",1579786322738,12,"male","English","impossible event","certain event","362.5|230|150|100",NA,"images/group2/S30-805.jpg",NA,"<b>Blue will</b> and <b>green will</b> touch the ground.","<b>Blue will</b> and <b>green will not</b> touch the ground.","<b>Blue will not</b> and <b>green will</b> touch the ground.","<b>Blue will not</b> and <b>green will not</b> touch the ground.","15|40|40|80","Thu Jan 23 2020 12:36:20 GMT+0000 (Greenwich Mean Time)",1579782980550,55.7031333333333,"slider_main",4,"bg|b|g|none","participant3"
514,"Rate how likely each of the following statements is!",43233,33,"282.5|140|40|80","442.5|140|40|80",NA,"Graduated College",1579786322738,12,"male","English","impossible event","certain event","362.5|230|150|100",NA,"images/group2/S7-130.jpg",NA,"<b>Blue will not</b> and <b>green will</b> touch the ground.","<b>Blue will</b> and <b>green will</b> touch the ground.","<b>Blue will not</b> and <b>green will not</b> touch the ground.","<b>Blue will</b> and <b>green will not</b> touch the ground.","15|95|5|20","Thu Jan 23 2020 12:36:20 GMT+0000 (Greenwich Mean Time)",1579782980550,55.7031333333333,"slider_main",5,"g|bg|none|b","participant3"
514,"Rate how likely each of the following statements is!",43183,33,"282.5|140|40|80","437.5|140|40|80",NA,"Graduated College",1579786322738,12,"male","English","impossible event","certain event","362.5|230|150|100",NA,"images/group2/S22-468.jpg",NA,"<b>Blue will</b> and <b>green will not</b> touch the ground.","<b>Blue will</b> and <b>green will</b> touch the ground.","<b>Blue will not</b> and <b>green will</b> touch the ground.","<b>Blue will not</b> and <b>green will not</b> touch the ground.","15|95|15|5","Thu Jan 23 2020 12:36:20 GMT+0000 (Greenwich Mean Time)",1579782980550,55.7031333333333,"slider_main",6,"b|bg|g|none","participant3"
514,"Rate how likely each of the following statements is!",22124,33,"292.5|40|40|80","432.5|40|40|80",NA,"Graduated College",1579786322738,12,"male","English","impossible event","certain event","250|180|75|200","475|180|75|200","images/group2/S1-121.jpg",NA,"<b>Blue will not</b> and <b>green will not</b> touch the ground.","<b>Blue will</b> and <b>green will not</b> touch the ground.","<b>Blue will</b> and <b>green will</b> touch the ground.","<b>Blue will not</b> and <b>green will</b> touch the ground.","5|20|95|20","Thu Jan 23 2020 12:36:20 GMT+0000 (Greenwich Mean Time)",1579782980550,55.7031333333333,"slider_main",7,"none|b|bg|g","participant3"
514,"Rate how likely each of the following statements is!",91227,33,"335|160|80|40","375|100|40|80",NA,"Graduated College",1579786322738,12,"male","English","impossible event","certain event","362.5|230|75|100",NA,"images/group2/S59-1007.jpg",NA,"<b>Blue will</b> and <b>green will not</b> touch the ground.","<b>Blue will not</b> and <b>green will</b> touch the ground.","<b>Blue will</b> and <b>green will</b> touch the ground.","<b>Blue will not</b> and <b>green will not</b> touch the ground.","95|15|10|5","Thu Jan 23 2020 12:36:20 GMT+0000 (Greenwich Mean Time)",1579782980550,55.7031333333333,"slider_main",8,"b|g|bg|none","participant3"
514,"Rate how likely each of the following statements is!",89162,33,"320|140|40|80","400|140|40|80",NA,"Graduated College",1579786322738,12,"male","English","impossible event","certain event","300|230|50|100","425|230|50|100","images/group2/S63-1039.jpg",NA,"<b>Blue will</b> and <b>green will not</b> touch the ground.","<b>Blue will</b> and <b>green will</b> touch the ground.","<b>Blue will not</b> and <b>green will not</b> touch the ground.","<b>Blue will not</b> and <b>green will</b> touch the ground.","35|90|10|25","Thu Jan 23 2020 12:36:20 GMT+0000 (Greenwich Mean Time)",1579782980550,55.7031333333333,"slider_main",9,"b|bg|none|g","participant3"
514,"Rate how likely each of the following statements is!",72398,33,"408.5|154.33333333333331|80|40","328.5|154.33333333333331|80|40",NA,"Graduated College",1579786322738,12,"male","English","impossible event","certain event","seesaw",NA,"images/group2/S97-1674.jpg",NA,"<b>Blue will</b> and <b>green will not</b> touch the ground.","<b>Blue will</b> and <b>green will</b> touch the ground.","<b>Blue will not</b> and <b>green will not</b> touch the ground.","<b>Blue will not</b> and <b>green will</b> touch the ground.","5|85|10|65","Thu Jan 23 2020 12:36:20 GMT+0000 (Greenwich Mean Time)",1579782980550,55.7031333333333,"slider_main",10,"b|bg|none|g","participant3"
514,"Rate how likely each of the following statements is!",759840,33,"282.5|140|40|80","432.5|140|40|80",NA,"Graduated College",1579786322738,12,"male","English","impossible event","certain event","362.5|230|150|100",NA,"images/group2/S12-203.jpg",NA,"<b>Blue will</b> and <b>green will</b> touch the ground.","<b>Blue will</b> and <b>green will not</b> touch the ground.","<b>Blue will not</b> and <b>green will</b> touch the ground.","<b>Blue will not</b> and <b>green will not</b> touch the ground.","75|40|70|10","Thu Jan 23 2020 12:36:20 GMT+0000 (Greenwich Mean Time)",1579782980550,55.7031333333333,"slider_main",11,"bg|b|g|none","participant3"
514,"Rate how likely each of the following statements is!",343583,33,"292.5|40|40|80","437.5|40|40|80",NA,"Graduated College",1579786322738,12,"male","English","impossible event","certain event","250|180|75|200","475|180|75|200","images/group2/S15-443.jpg",NA,"<b>Blue will not</b> and <b>green will</b> touch the ground.","<b>Blue will</b> and <b>green will not</b> touch the ground.","<b>Blue will</b> and <b>green will</b> touch the ground.","<b>Blue will not</b> and <b>green will not</b> touch the ground.","90|5|40|0","Thu Jan 23 2020 12:36:20 GMT+0000 (Greenwich Mean Time)",1579782980550,55.7031333333333,"slider_main",12,"g|b|bg|none","participant3"
514,"Rate how likely each of the following statements is!",69347,33,"292.5|40|40|80","442.5|140|40|80",NA,"Graduated College",1579786322738,12,"male","English","impossible event","certain event","250|180|75|200","475|230|75|100","images/group2/S10-203.jpg",NA,"<b>Blue will not</b> and <b>green will</b> touch the ground.","<b>Blue will</b> and <b>green will</b> touch the ground.","<b>Blue will</b> and <b>green will not</b> touch the ground.","<b>Blue will not</b> and <b>green will not</b> touch the ground.","95|5|20|0","Thu Jan 23 2020 12:36:20 GMT+0000 (Greenwich Mean Time)",1579782980550,55.7031333333333,"slider_main",13,"g|bg|b|none","participant3"
514,"Rate how likely each of the following statements is!",93307,33,"317.5|140|40|80","417.5|140|40|80",NA,"Graduated College",1579786322738,12,"male","English","impossible event","certain event","237.5|230|150|100","487.5|230|150|100","images/group2/S8-202.jpg",NA,"<b>Blue will not</b> and <b>green will</b> touch the ground.","<b>Blue will</b> and <b>green will</b> touch the ground.","<b>Blue will not</b> and <b>green will not</b> touch the ground.","<b>Blue will</b> and <b>green will not</b> touch the ground.","95|10|0|5","Thu Jan 23 2020 12:36:20 GMT+0000 (Greenwich Mean Time)",1579782980550,55.7031333333333,"slider_main",14,"g|bg|none|b","participant3"
514,"Rate how likely each of the following statements is!",28687,33,"292.5|40|40|80","437.5|140|40|80",NA,"Graduated College",1579786322738,12,"male","English","impossible event","certain event","250|180|75|200","475|230|75|100","images/group2/S20-468.jpg",NA,"<b>Blue will</b> and <b>green will not</b> touch the ground.","<b>Blue will not</b> and <b>green will</b> touch the ground.","<b>Blue will not</b> and <b>green will not</b> touch the ground.","<b>Blue will</b> and <b>green will</b> touch the ground.","80|75|0|70","Thu Jan 23 2020 12:36:20 GMT+0000 (Greenwich Mean Time)",1579782980550,55.7031333333333,"slider_main",15,"b|g|none|bg","participant3"
514,"Rate how likely each of the following statements is!",36976,33,"287.5|140|40|80","437.5|140|40|80",NA,"Graduated College",1579786322738,12,"male","English","impossible event","certain event","362.5|230|150|100",NA,"images/group2/S89-1642.jpg",NA,"<b>Blue will not</b> and <b>green will not</b> touch the ground.","<b>Blue will</b> and <b>green will not</b> touch the ground.","<b>Blue will</b> and <b>green will</b> touch the ground.","<b>Blue will not</b> and <b>green will</b> touch the ground.","5|75|70|60","Thu Jan 23 2020 12:36:20 GMT+0000 (Greenwich Mean Time)",1579782980550,55.7031333333333,"slider_main",16,"none|b|bg|g","participant3"
514,"Rate how likely each of the following statements is!",86999,33,"370|100|40|80","335|160|80|40",NA,"Graduated College",1579786322738,12,"male","English","impossible event","certain event","362.5|230|75|100",NA,"images/group2/S44-806.jpg",NA,"<b>Blue will</b> and <b>green will</b> touch the ground.","<b>Blue will</b> and <b>green will not</b> touch the ground.","<b>Blue will not</b> and <b>green will</b> touch the ground.","<b>Blue will not</b> and <b>green will not</b> touch the ground.","5|0|20|10","Thu Jan 23 2020 12:36:20 GMT+0000 (Greenwich Mean Time)",1579782980550,55.7031333333333,"slider_main",17,"bg|b|g|none","participant3"
514,"Rate how likely each of the following statements is!",38468,33,"292.5|140|40|80","437.5|140|40|80",NA,"Graduated College",1579786322738,12,"male","English","impossible event","certain event","362.5|230|150|100",NA,"images/group2/S57-1007.jpg",NA,"<b>Blue will</b> and <b>green will not</b> touch the ground.","<b>Blue will not</b> and <b>green will</b> touch the ground.","<b>Blue will not</b> and <b>green will not</b> touch the ground.","<b>Blue will</b> and <b>green will</b> touch the ground.","80|20|0|75","Thu Jan 23 2020 12:36:20 GMT+0000 (Greenwich Mean Time)",1579782980550,55.7031333333333,"slider_main",18,"b|g|none|bg","participant3"
514,"Rate how likely each of the following statements is!",688771,33,"252.5|178.33333333333331|80|40","472.5|178.33333333333331|80|40",NA,"Graduated College",1579786322738,12,"male","English","impossible event","certain event","seesaw",NA,"images/group2/S7-130-dep.jpg",NA,"<b>Blue will</b> and <b>green will not</b> touch the ground.","<b>Blue will</b> and <b>green will</b> touch the ground.","<b>Blue will not</b> and <b>green will</b> touch the ground.","<b>Blue will not</b> and <b>green will not</b> touch the ground.","10|90|30|75","Thu Jan 23 2020 12:36:20 GMT+0000 (Greenwich Mean Time)",1579782980550,55.7031333333333,"slider_main",19,"b|bg|g|none","participant3"
514,"Rate how likely each of the following statements is!",48854,33,"335|160|80|40","365|120|80|40",NA,"Graduated College",1579786322738,12,"male","English","impossible event","certain event","362.5|230|75|100",NA,"images/group2/S54-806.jpg",NA,"<b>Blue will not</b> and <b>green will</b> touch the ground.","<b>Blue will</b> and <b>green will not</b> touch the ground.","<b>Blue will</b> and <b>green will</b> touch the ground.","<b>Blue will not</b> and <b>green will not</b> touch the ground.","90|90|0|95","Thu Jan 23 2020 12:36:20 GMT+0000 (Greenwich Mean Time)",1579782980550,55.7031333333333,"slider_main",20,"g|b|bg|none","participant3"
514,"Rate how likely each of the following statements is!",71291,33,"302.5|160|80|40","417.5|40|40|80",NA,"Graduated College",1579786322738,12,"male","English","impossible event","certain event","275|230|75|100","450|180|75|200","images/group2/S34-806.jpg",NA,"<b>Blue will not</b> and <b>green will not</b> touch the ground.","<b>Blue will</b> and <b>green will not</b> touch the ground.","<b>Blue will not</b> and <b>green will</b> touch the ground.","<b>Blue will</b> and <b>green will</b> touch the ground.","90|70|10|0","Thu Jan 23 2020 12:36:20 GMT+0000 (Greenwich Mean Time)",1579782980550,55.7031333333333,"slider_main",21,"none|b|g|bg","participant3"
514,"Rate how likely each of the following statements is!",96164,33,"282.5|40|40|80","442.5|140|40|80",NA,"Graduated College",1579786322738,12,"male","English","impossible event","certain event","250|180|75|200","475|230|75|100","images/group2/S32-806.jpg",NA,"<b>Blue will</b> and <b>green will</b> touch the ground.","<b>Blue will not</b> and <b>green will not</b> touch the ground.","<b>Blue will not</b> and <b>green will</b> touch the ground.","<b>Blue will</b> and <b>green will not</b> touch the ground.","20|90|40|30","Thu Jan 23 2020 12:36:20 GMT+0000 (Greenwich Mean Time)",1579782980550,55.7031333333333,"slider_main",22,"bg|none|g|b","participant3"
514,"Rate how likely each of the following statements is!",31554,33,"377.5|120|80|40","347.5|160|80|40",NA,"Graduated College",1579786322738,12,"male","English","impossible event","certain event","362.5|230|150|100",NA,"images/group2/S30-805-dep.jpg",NA,"<b>Blue will not</b> and <b>green will not</b> touch the ground.","<b>Blue will</b> and <b>green will not</b> touch the ground.","<b>Blue will</b> and <b>green will</b> touch the ground.","<b>Blue will not</b> and <b>green will</b> touch the ground.","90|30|5|35","Thu Jan 23 2020 12:36:20 GMT+0000 (Greenwich Mean Time)",1579782980550,55.7031333333333,"slider_main",23,"none|b|bg|g","participant3"
514,"Rate how likely each of the following statements is!",19923,33,"262.5|178.33333333333331|80|40","462.5|178.33333333333331|80|40",NA,"Graduated College",1579786322738,12,"male","English","impossible event","certain event","seesaw",NA,"images/group2/S89-1642-dep.jpg",NA,"<b>Blue will not</b> and <b>green will not</b> touch the ground.","<b>Blue will</b> and <b>green will</b> touch the ground.","<b>Blue will</b> and <b>green will not</b> touch the ground.","<b>Blue will not</b> and <b>green will</b> touch the ground.","25|38|63|81","Thu Jan 23 2020 12:36:20 GMT+0000 (Greenwich Mean Time)",1579782980550,55.7031333333333,"slider_main",24,"none|bg|b|g","participant3"
514,"Rate how likely each of the following statements is!",17754,33,"362.5|138.33333333333331|80|40","362.5|178.33333333333331|80|40",NA,"Graduated College",1579786322738,12,"male","English","impossible event","certain event","seesaw",NA,"images/group2/S42-806.jpg",NA,"<b>Blue will not</b> and <b>green will not</b> touch the ground.","<b>Blue will</b> and <b>green will not</b> touch the ground.","<b>Blue will not</b> and <b>green will</b> touch the ground.","<b>Blue will</b> and <b>green will</b> touch the ground.","94|21|79|14","Thu Jan 23 2020 12:36:20 GMT+0000 (Greenwich Mean Time)",1579782980550,55.7031333333333,"slider_main",25,"none|b|g|bg","participant3"
513,NA,16905,34,"300|160|80|40","445|140|40|80",NA,"Graduated College",1579784906585,12,"female","English",NA,NA,"262.5|230|75|100","475|230|50|100",NA,NA,NA,NA,NA,NA,"85|43|43|39","Thu Jan 23 2020 12:51:47 GMT+0000 (GMT)",1579783907462,16.65205,"train1",1,"bg|g|g|b","participant4"
513,NA,26874,34,"292.5|40|40|80","442.5|140|40|80",NA,"Graduated College",1579784906585,12,"female","English",NA,NA,"212.5|180|150|200","512.5|230|150|100",NA,NA,NA,NA,NA,NA,"26|26|100|29","Thu Jan 23 2020 12:51:47 GMT+0000 (GMT)",1579783907462,16.65205,"train2",2,"bg|bg|none|none","participant4"
513,NA,21080,34,"303.0032614932849|160|80|40","320.8116030741283|120|80|40",NA,"Graduated College",1579784906585,12,"female","English",NA,NA,"362.5|230|75|100",NA,NA,NA,NA,NA,NA,NA,"39|64|36|44","Thu Jan 23 2020 12:51:47 GMT+0000 (GMT)",1579783907462,16.65205,"train3",3,"b|none|g|g","participant4"
513,NA,30350,34,"387.64262430928375|158.33333333333331|40|80","338.3428204487234|98.33333333333331|80|40",NA,"Graduated College",1579784906585,12,"female","English",NA,NA,"seesaw",NA,NA,NA,NA,NA,NA,NA,"0|0|0|0","Thu Jan 23 2020 12:51:47 GMT+0000 (GMT)",1579783907462,16.65205,"train4",4,"none|none|b|none","participant4"
513,"Rate how likely each of the following statements is!",26471,34,"282.5|140|40|80","442.5|140|40|80",NA,"Graduated College",1579784906585,12,"female","English","impossible event","certain event","362.5|230|150|100",NA,"images/group1/S7-130.jpg",NA,"<b>Blue will not</b> and <b>green will</b> touch the ground.","<b>Blue will</b> and <b>green will</b> touch the ground.","<b>Blue will not</b> and <b>green will not</b> touch the ground.","<b>Blue will</b> and <b>green will not</b> touch the ground.","51|81|25|51","Thu Jan 23 2020 12:51:47 GMT+0000 (GMT)",1579783907462,16.65205,"slider_main",1,"g|bg|none|b","participant4"
513,"Rate how likely each of the following statements is!",23894,34,"262.5|178.33333333333331|80|40","462.5|178.33333333333331|80|40",NA,"Graduated College",1579784906585,12,"female","English","impossible event","certain event","seesaw",NA,"images/group1/S89-1642-dep.jpg",NA,"<b>Blue will not</b> and <b>green will not</b> touch the ground.","<b>Blue will</b> and <b>green will</b> touch the ground.","<b>Blue will not</b> and <b>green will</b> touch the ground.","<b>Blue will</b> and <b>green will not</b> touch the ground.","75|75|20|20","Thu Jan 23 2020 12:51:47 GMT+0000 (GMT)",1579783907462,16.65205,"slider_main",2,"none|bg|g|b","participant4"
513,"Rate how likely each of the following statements is!",26898,34,"335|160|80|40","365|120|80|40",NA,"Graduated College",1579784906585,12,"female","English","impossible event","certain event","362.5|230|75|100",NA,"images/group1/S54-806.jpg",NA,"<b>Blue will</b> and <b>green will not</b> touch the ground.","<b>Blue will not</b> and <b>green will</b> touch the ground.","<b>Blue will not</b> and <b>green will not</b> touch the ground.","<b>Blue will</b> and <b>green will</b> touch the ground.","14|66|70|34","Thu Jan 23 2020 12:51:47 GMT+0000 (GMT)",1579783907462,16.65205,"slider_main",3,"b|g|none|bg","participant4"
513,"Rate how likely each of the following statements is!",19923,34,"252.5|178.33333333333331|80|40","472.5|178.33333333333331|80|40",NA,"Graduated College",1579784906585,12,"female","English","impossible event","certain event","seesaw",NA,"images/group1/S7-130-dep.jpg",NA,"<b>Blue will not</b> and <b>green will not</b> touch the ground.","<b>Blue will</b> and <b>green will</b> touch the ground.","<b>Blue will</b> and <b>green will not</b> touch the ground.","<b>Blue will not</b> and <b>green will</b> touch the ground.","10|90|0|0","Thu Jan 23 2020 12:51:47 GMT+0000 (GMT)",1579783907462,16.65205,"slider_main",4,"none|bg|b|g","participant4"
513,"Rate how likely each of the following statements is!",38271,34,"292.5|40|40|80","437.5|40|40|80",NA,"Graduated College",1579784906585,12,"female","English","impossible event","certain event","250|180|75|200","475|180|75|200","images/group1/S15-443.jpg",NA,"<b>Blue will</b> and <b>green will</b> touch the ground.","<b>Blue will</b> and <b>green will not</b> touch the ground.","<b>Blue will not</b> and <b>green will</b> touch the ground.","<b>Blue will not</b> and <b>green will not</b> touch the ground.","60|51|51|0","Thu Jan 23 2020 12:51:47 GMT+0000 (GMT)",1579783907462,16.65205,"slider_main",5,"bg|b|g|none","participant4"
513,"Rate how likely each of the following statements is!",31061,34,"292.5|40|40|80","442.5|140|40|80",NA,"Graduated College",1579784906585,12,"female","English","impossible event","certain event","250|180|75|200","475|230|75|100","images/group1/S10-203.jpg",NA,"<b>Blue will not</b> and <b>green will</b> touch the ground.","<b>Blue will</b> and <b>green will</b> touch the ground.","<b>Blue will not</b> and <b>green will not</b> touch the ground.","<b>Blue will</b> and <b>green will not</b> touch the ground.","70|0|5|55","Thu Jan 23 2020 12:51:47 GMT+0000 (GMT)",1579783907462,16.65205,"slider_main",6,"g|bg|none|b","participant4"
513,"Rate how likely each of the following statements is!",30363,34,"282.5|140|40|80","437.5|160|80|40",NA,"Graduated College",1579784906585,12,"female","English","impossible event","certain event","250|230|75|100","475|230|75|100","images/group1/S55-1006.jpg",NA,"<b>Blue will</b> and <b>green will not</b> touch the ground.","<b>Blue will not</b> and <b>green will not</b> touch the ground.","<b>Blue will</b> and <b>green will</b> touch the ground.","<b>Blue will not</b> and <b>green will</b> touch the ground.","68|70|22|8","Thu Jan 23 2020 12:51:47 GMT+0000 (GMT)",1579783907462,16.65205,"slider_main",7,"b|none|bg|g","participant4"
513,"Rate how likely each of the following statements is!",64652,34,"292.5|140|40|80","432.5|140|40|80",NA,"Graduated College",1579784906585,12,"female","English","impossible event","certain event","362.5|230|150|100",NA,"images/group1/S30-805.jpg",NA,"<b>Blue will</b> and <b>green will</b> touch the ground.","<b>Blue will not</b> and <b>green will</b> touch the ground.","<b>Blue will not</b> and <b>green will not</b> touch the ground.","<b>Blue will</b> and <b>green will not</b> touch the ground.","60|30|80|15","Thu Jan 23 2020 12:51:47 GMT+0000 (GMT)",1579783907462,16.65205,"slider_main",8,"bg|g|none|b","participant4"
513,"Rate how likely each of the following statements is!",36314,34,"287.5|140|40|80","437.5|140|40|80",NA,"Graduated College",1579784906585,12,"female","English","impossible event","certain event","212.5|230|150|100","512.5|230|150|100","images/group1/S83-1609.jpg",NA,"<b>Blue will</b> and <b>green will not</b> touch the ground.","<b>Blue will not</b> and <b>green will not</b> touch the ground.","<b>Blue will not</b> and <b>green will</b> touch the ground.","<b>Blue will</b> and <b>green will</b> touch the ground.","55|30|55|75","Thu Jan 23 2020 12:51:47 GMT+0000 (GMT)",1579783907462,16.65205,"slider_main",9,"b|none|g|bg","participant4"
513,"Rate how likely each of the following statements is!",31094,34,"282.5|140|40|80","437.5|140|40|80",NA,"Graduated College",1579784906585,12,"female","English","impossible event","certain event","362.5|230|150|100",NA,"images/group1/S22-468.jpg",NA,"<b>Blue will</b> and <b>green will not</b> touch the ground.","<b>Blue will</b> and <b>green will</b> touch the ground.","<b>Blue will not</b> and <b>green will</b> touch the ground.","<b>Blue will not</b> and <b>green will not</b> touch the ground.","64|26|29|52","Thu Jan 23 2020 12:51:47 GMT+0000 (GMT)",1579783907462,16.65205,"slider_main",10,"b|bg|g|none","participant4"
513,"Rate how likely each of the following statements is!",27550,34,"282.5|140|40|80","432.5|140|40|80",NA,"Graduated College",1579784906585,12,"female","English","impossible event","certain event","362.5|230|150|100",NA,"images/group1/S12-203.jpg",NA,"<b>Blue will not</b> and <b>green will not</b> touch the ground.","<b>Blue will</b> and <b>green will not</b> touch the ground.","<b>Blue will not</b> and <b>green will</b> touch the ground.","<b>Blue will</b> and <b>green will</b> touch the ground.","23|66|25|46","Thu Jan 23 2020 12:51:47 GMT+0000 (GMT)",1579783907462,16.65205,"slider_main",11,"none|b|g|bg","participant4"
513,"Rate how likely each of the following statements is!",38542,34,"320|140|40|80","400|140|40|80",NA,"Graduated College",1579784906585,12,"female","English","impossible event","certain event","300|230|50|100","425|230|50|100","images/group1/S63-1039.jpg",NA,"<b>Blue will not</b> and <b>green will not</b> touch the ground.","<b>Blue will</b> and <b>green will not</b> touch the ground.","<b>Blue will</b> and <b>green will</b> touch the ground.","<b>Blue will not</b> and <b>green will</b> touch the ground.","75|29|29|29","Thu Jan 23 2020 12:51:47 GMT+0000 (GMT)",1579783907462,16.65205,"slider_main",12,"none|b|bg|g","participant4"
513,"Rate how likely each of the following statements is!",32467,34,"287.5|140|40|80","437.5|140|40|80",NA,"Graduated College",1579784906585,12,"female","English","impossible event","certain event","362.5|230|150|100",NA,"images/group1/S89-1642.jpg",NA,"<b>Blue will</b> and <b>green will</b> touch the ground.","<b>Blue will not</b> and <b>green will not</b> touch the ground.","<b>Blue will not</b> and <b>green will</b> touch the ground.","<b>Blue will</b> and <b>green will not</b> touch the ground.","65|60|30|30","Thu Jan 23 2020 12:51:47 GMT+0000 (GMT)",1579783907462,16.65205,"slider_main",13,"bg|none|g|b","participant4"
513,"Rate how likely each of the following statements is!",28788,34,"370|100|40|80","335|160|80|40",NA,"Graduated College",1579784906585,12,"female","English","impossible event","certain event","362.5|230|75|100",NA,"images/group1/S44-806.jpg",NA,"<b>Blue will</b> and <b>green will not</b> touch the ground.","<b>Blue will not</b> and <b>green will</b> touch the ground.","<b>Blue will not</b> and <b>green will not</b> touch the ground.","<b>Blue will</b> and <b>green will</b> touch the ground.","85|0|65|0","Thu Jan 23 2020 12:51:47 GMT+0000 (GMT)",1579783907462,16.65205,"slider_main",14,"b|g|none|bg","participant4"
513,"Rate how likely each of the following statements is!",37383,34,"292.5|40|40|80","437.5|140|40|80",NA,"Graduated College",1579784906585,12,"female","English","impossible event","certain event","250|180|75|200","475|230|75|100","images/group1/S20-468.jpg",NA,"<b>Blue will</b> and <b>green will</b> touch the ground.","<b>Blue will not</b> and <b>green will not</b> touch the ground.","<b>Blue will not</b> and <b>green will</b> touch the ground.","<b>Blue will</b> and <b>green will not</b> touch the ground.","75|15|25|45","Thu Jan 23 2020 12:51:47 GMT+0000 (GMT)",1579783907462,16.65205,"slider_main",15,"bg|none|g|b","participant4"
513,"Rate how likely each of the following statements is!",41208,34,"408.5|154.33333333333331|80|40","328.5|154.33333333333331|80|40",NA,"Graduated College",1579784906585,12,"female","English","impossible event","certain event","seesaw",NA,"images/group1/S97-1674.jpg",NA,"<b>Blue will</b> and <b>green will not</b> touch the ground.","<b>Blue will not</b> and <b>green will</b> touch the ground.","<b>Blue will not</b> and <b>green will not</b> touch the ground.","<b>Blue will</b> and <b>green will</b> touch the ground.","46|10|55|75","Thu Jan 23 2020 12:51:47 GMT+0000 (GMT)",1579783907462,16.65205,"slider_main",16,"b|g|none|bg","participant4"
513,"Rate how likely each of the following statements is!",29159,34,"292.5|40|40|80","432.5|40|40|80",NA,"Graduated College",1579784906585,12,"female","English","impossible event","certain event","250|180|75|200","475|180|75|200","images/group1/S1-121.jpg",NA,"<b>Blue will</b> and <b>green will</b> touch the ground.","<b>Blue will not</b> and <b>green will not</b> touch the ground.","<b>Blue will</b> and <b>green will not</b> touch the ground.","<b>Blue will not</b> and <b>green will</b> touch the ground.","60|0|55|55","Thu Jan 23 2020 12:51:47 GMT+0000 (GMT)",1579783907462,16.65205,"slider_main",17,"bg|none|b|g","participant4"
513,"Rate how likely each of the following statements is!",26583,34,"302.5|160|80|40","417.5|40|40|80",NA,"Graduated College",1579784906585,12,"female","English","impossible event","certain event","275|230|75|100","450|180|75|200","images/group1/S34-806.jpg",NA,"<b>Blue will</b> and <b>green will not</b> touch the ground.","<b>Blue will</b> and <b>green will</b> touch the ground.","<b>Blue will not</b> and <b>green will</b> touch the ground.","<b>Blue will not</b> and <b>green will not</b> touch the ground.","0|0|80|90","Thu Jan 23 2020 12:51:47 GMT+0000 (GMT)",1579783907462,16.65205,"slider_main",18,"b|bg|g|none","participant4"
513,"Rate how likely each of the following statements is!",39925,34,"282.5|40|40|80","442.5|140|40|80",NA,"Graduated College",1579784906585,12,"female","English","impossible event","certain event","250|180|75|200","475|230|75|100","images/group1/S32-806.jpg",NA,"<b>Blue will</b> and <b>green will not</b> touch the ground.","<b>Blue will</b> and <b>green will</b> touch the ground.","<b>Blue will not</b> and <b>green will not</b> touch the ground.","<b>Blue will not</b> and <b>green will</b> touch the ground.","30|15|85|30","Thu Jan 23 2020 12:51:47 GMT+0000 (GMT)",1579783907462,16.65205,"slider_main",19,"b|bg|none|g","participant4"
513,"Rate how likely each of the following statements is!",25008,34,"250|160|80|40","400|40|40|80",NA,"Graduated College",1579784906585,12,"female","English","impossible event","certain event","287.5|230|75|100","437.5|180|75|200","images/group1/S93-1674.jpg",NA,"<b>Blue will not</b> and <b>green will</b> touch the ground.","<b>Blue will</b> and <b>green will not</b> touch the ground.","<b>Blue will not</b> and <b>green will not</b> touch the ground.","<b>Blue will</b> and <b>green will</b> touch the ground.","65|0|75|0","Thu Jan 23 2020 12:51:47 GMT+0000 (GMT)",1579783907462,16.65205,"slider_main",20,"g|b|none|bg","participant4"
513,"Rate how likely each of the following statements is!",54527,34,"292.5|140|40|80","437.5|140|40|80",NA,"Graduated College",1579784906585,12,"female","English","impossible event","certain event","362.5|230|150|100",NA,"images/group1/S57-1007.jpg",NA,"<b>Blue will not</b> and <b>green will</b> touch the ground.","<b>Blue will not</b> and <b>green will not</b> touch the ground.","<b>Blue will</b> and <b>green will not</b> touch the ground.","<b>Blue will</b> and <b>green will</b> touch the ground.","66|55|10|5","Thu Jan 23 2020 12:51:47 GMT+0000 (GMT)",1579783907462,16.65205,"slider_main",21,"g|none|b|bg","participant4"
513,"Rate how likely each of the following statements is!",37316,34,"335|160|80|40","375|100|40|80",NA,"Graduated College",1579784906585,12,"female","English","impossible event","certain event","362.5|230|75|100",NA,"images/group1/S59-1007.jpg",NA,"<b>Blue will</b> and <b>green will not</b> touch the ground.","<b>Blue will not</b> and <b>green will not</b> touch the ground.","<b>Blue will not</b> and <b>green will</b> touch the ground.","<b>Blue will</b> and <b>green will</b> touch the ground.","0|35|75|0","Thu Jan 23 2020 12:51:47 GMT+0000 (GMT)",1579783907462,16.65205,"slider_main",22,"b|none|g|bg","participant4"
513,"Rate how likely each of the following statements is!",33817,34,"317.5|140|40|80","417.5|140|40|80",NA,"Graduated College",1579784906585,12,"female","English","impossible event","certain event","237.5|230|150|100","487.5|230|150|100","images/group1/S8-202.jpg",NA,"<b>Blue will</b> and <b>green will</b> touch the ground.","<b>Blue will not</b> and <b>green will not</b> touch the ground.","<b>Blue will not</b> and <b>green will</b> touch the ground.","<b>Blue will</b> and <b>green will not</b> touch the ground.","30|52|47|75","Thu Jan 23 2020 12:51:47 GMT+0000 (GMT)",1579783907462,16.65205,"slider_main",23,"bg|none|g|b","participant4"
513,"Rate how likely each of the following statements is!",40499,34,"377.5|120|80|40","347.5|160|80|40",NA,"Graduated College",1579784906585,12,"female","English","impossible event","certain event","362.5|230|150|100",NA,"images/group1/S30-805-dep.jpg",NA,"<b>Blue will not</b> and <b>green will</b> touch the ground.","<b>Blue will not</b> and <b>green will not</b> touch the ground.","<b>Blue will</b> and <b>green will</b> touch the ground.","<b>Blue will</b> and <b>green will not</b> touch the ground.","0|85|0|55","Thu Jan 23 2020 12:51:47 GMT+0000 (GMT)",1579783907462,16.65205,"slider_main",24,"g|none|bg|b","participant4"
513,"Rate how likely each of the following statements is!",41151,34,"362.5|138.33333333333331|80|40","362.5|178.33333333333331|80|40",NA,"Graduated College",1579784906585,12,"female","English","impossible event","certain event","seesaw",NA,"images/group1/S42-806.jpg",NA,"<b>Blue will</b> and <b>green will</b> touch the ground.","<b>Blue will</b> and <b>green will not</b> touch the ground.","<b>Blue will not</b> and <b>green will</b> touch the ground.","<b>Blue will not</b> and <b>green will not</b> touch the ground.","55|0|0|90","Thu Jan 23 2020 12:51:47 GMT+0000 (GMT)",1579783907462,16.65205,"slider_main",25,"bg|b|g|none","participant4"
512,NA,174544,63,"325|140|40|80","465|160|80|40",NA,"Graduated High School",1579784879450,12,"female","English",NA,NA,"250|230|150|100","512.5|230|75|100",NA,NA,NA,NA,NA,NA,"0|100|50|50","Thu Jan 23 2020 12:36:56 GMT+0000 (GMT)",1579783016778,31.0445333333333,"train1",1,"b|none|b|b","participant5"
512,NA,104661,63,"292.5|40|40|80","442.5|140|40|80",NA,"Graduated High School",1579784879450,12,"female","English",NA,NA,"212.5|180|150|200","512.5|230|150|100",NA,NA,NA,NA,NA,NA,"0|50|50|50","Thu Jan 23 2020 12:36:56 GMT+0000 (GMT)",1579783016778,31.0445333333333,"train2",2,"b|b|g|b","participant5"
512,NA,76522,63,"412.9213687416081|80|80|40","443.6306072839308|140|40|80",NA,"Graduated High School",1579784879450,12,"female","English",NA,NA,"362.5|230|150|100",NA,NA,NA,NA,NA,NA,NA,"0|0|100|0","Thu Jan 23 2020 12:36:56 GMT+0000 (GMT)",1579783016778,31.0445333333333,"train3",3,"b|none|bg|g","participant5"
512,NA,67276,63,"520.507666832307|98.33333333333331|80|40","472.7527398843838|158.33333333333331|40|80",NA,"Graduated High School",1579784879450,12,"female","English",NA,NA,"seesaw",NA,NA,NA,NA,NA,NA,NA,"0|0|100|0","Thu Jan 23 2020 12:36:56 GMT+0000 (GMT)",1579783016778,31.0445333333333,"train4",4,"g|g|bg|none","participant5"
512,"Rate how likely each of the following statements is!",84686,63,"282.5|140|40|80","432.5|140|40|80",NA,"Graduated High School",1579784879450,12,"female","English","impossible event","certain event","362.5|230|150|100",NA,"images/group2/S12-203.jpg",NA,"<b>Blue will not</b> and <b>green will not</b> touch the ground.","<b>Blue will not</b> and <b>green will</b> touch the ground.","<b>Blue will</b> and <b>green will</b> touch the ground.","<b>Blue will</b> and <b>green will not</b> touch the ground.","100|100|50|50","Thu Jan 23 2020 12:36:56 GMT+0000 (GMT)",1579783016778,31.0445333333333,"slider_main",1,"none|g|bg|b","participant5"
512,"Rate how likely each of the following statements is!",62973,63,"377.5|120|80|40","347.5|160|80|40",NA,"Graduated High School",1579784879450,12,"female","English","impossible event","certain event","362.5|230|150|100",NA,"images/group2/S30-805-dep.jpg",NA,"<b>Blue will not</b> and <b>green will</b> touch the ground.","<b>Blue will</b> and <b>green will</b> touch the ground.","<b>Blue will not</b> and <b>green will not</b> touch the ground.","<b>Blue will</b> and <b>green will not</b> touch the ground.","0|0|100|50","Thu Jan 23 2020 12:36:56 GMT+0000 (GMT)",1579783016778,31.0445333333333,"slider_main",2,"g|bg|none|b","participant5"
512,"Rate how likely each of the following statements is!",56713,63,"335|160|80|40","365|120|80|40",NA,"Graduated High School",1579784879450,12,"female","English","impossible event","certain event","362.5|230|75|100",NA,"images/group2/S54-806.jpg",NA,"<b>Blue will</b> and <b>green will not</b> touch the ground.","<b>Blue will not</b> and <b>green will not</b> touch the ground.","<b>Blue will</b> and <b>green will</b> touch the ground.","<b>Blue will not</b> and <b>green will</b> touch the ground.","100|100|0|50","Thu Jan 23 2020 12:36:56 GMT+0000 (GMT)",1579783016778,31.0445333333333,"slider_main",3,"b|none|bg|g","participant5"
512,"Rate how likely each of the following statements is!",60079,63,"317.5|140|40|80","417.5|140|40|80",NA,"Graduated High School",1579784879450,12,"female","English","impossible event","certain event","237.5|230|150|100","487.5|230|150|100","images/group2/S8-202.jpg",NA,"<b>Blue will</b> and <b>green will not</b> touch the ground.","<b>Blue will not</b> and <b>green will not</b> touch the ground.","<b>Blue will</b> and <b>green will</b> touch the ground.","<b>Blue will not</b> and <b>green will</b> touch the ground.","25|100|0|100","Thu Jan 23 2020 12:36:56 GMT+0000 (GMT)",1579783016778,31.0445333333333,"slider_main",4,"b|none|bg|g","participant5"
512,"Rate how likely each of the following statements is!",48484,63,"262.5|178.33333333333331|80|40","462.5|178.33333333333331|80|40",NA,"Graduated High School",1579784879450,12,"female","English","impossible event","certain event","seesaw",NA,"images/group2/S89-1642-dep.jpg",NA,"<b>Blue will</b> and <b>green will not</b> touch the ground.","<b>Blue will</b> and <b>green will</b> touch the ground.","<b>Blue will not</b> and <b>green will not</b> touch the ground.","<b>Blue will not</b> and <b>green will</b> touch the ground.","25|0|100|25","Thu Jan 23 2020 12:36:56 GMT+0000 (GMT)",1579783016778,31.0445333333333,"slider_main",5,"b|bg|none|g","participant5"
512,"Rate how likely each of the following statements is!",49590,63,"287.5|140|40|80","437.5|140|40|80",NA,"Graduated High School",1579784879450,12,"female","English","impossible event","certain event","212.5|230|150|100","512.5|230|150|100","images/group2/S83-1609.jpg",NA,"<b>Blue will not</b> and <b>green will not</b> touch the ground.","<b>Blue will</b> and <b>green will not</b> touch the ground.","<b>Blue will</b> and <b>green will</b> touch the ground.","<b>Blue will not</b> and <b>green will</b> touch the ground.","0|76|100|75","Thu Jan 23 2020 12:36:56 GMT+0000 (GMT)",1579783016778,31.0445333333333,"slider_main",6,"none|b|bg|g","participant5"
512,"Rate how likely each of the following statements is!",44461,63,"252.5|178.33333333333331|80|40","472.5|178.33333333333331|80|40",NA,"Graduated High School",1579784879450,12,"female","English","impossible event","certain event","seesaw",NA,"images/group2/S7-130-dep.jpg",NA,"<b>Blue will</b> and <b>green will</b> touch the ground.","<b>Blue will not</b> and <b>green will not</b> touch the ground.","<b>Blue will not</b> and <b>green will</b> touch the ground.","<b>Blue will</b> and <b>green will not</b> touch the ground.","100|0|50|50","Thu Jan 23 2020 12:36:56 GMT+0000 (GMT)",1579783016778,31.0445333333333,"slider_main",7,"bg|none|g|b","participant5"
512,"Rate how likely each of the following statements is!",49571,63,"320|140|40|80","400|140|40|80",NA,"Graduated High School",1579784879450,12,"female","English","impossible event","certain event","300|230|50|100","425|230|50|100","images/group2/S63-1039.jpg",NA,"<b>Blue will</b> and <b>green will</b> touch the ground.","<b>Blue will not</b> and <b>green will not</b> touch the ground.","<b>Blue will not</b> and <b>green will</b> touch the ground.","<b>Blue will</b> and <b>green will not</b> touch the ground.","100|0|50|50","Thu Jan 23 2020 12:36:56 GMT+0000 (GMT)",1579783016778,31.0445333333333,"slider_main",8,"bg|none|g|b","participant5"
512,"Rate how likely each of the following statements is!",50046,63,"282.5|40|40|80","442.5|140|40|80",NA,"Graduated High School",1579784879450,12,"female","English","impossible event","certain event","250|180|75|200","475|230|75|100","images/group2/S32-806.jpg",NA,"<b>Blue will not</b> and <b>green will not</b> touch the ground.","<b>Blue will</b> and <b>green will not</b> touch the ground.","<b>Blue will</b> and <b>green will</b> touch the ground.","<b>Blue will not</b> and <b>green will</b> touch the ground.","0|51|100|50","Thu Jan 23 2020 12:36:56 GMT+0000 (GMT)",1579783016778,31.0445333333333,"slider_main",9,"none|b|bg|g","participant5"
512,"Rate how likely each of the following statements is!",35853,63,"292.5|40|40|80","432.5|40|40|80",NA,"Graduated High School",1579784879450,12,"female","English","impossible event","certain event","250|180|75|200","475|180|75|200","images/group2/S1-121.jpg",NA,"<b>Blue will not</b> and <b>green will not</b> touch the ground.","<b>Blue will not</b> and <b>green will</b> touch the ground.","<b>Blue will</b> and <b>green will not</b> touch the ground.","<b>Blue will</b> and <b>green will</b> touch the ground.","0|50|50|100","Thu Jan 23 2020 12:36:56 GMT+0000 (GMT)",1579783016778,31.0445333333333,"slider_main",10,"none|g|b|bg","participant5"
512,"Rate how likely each of the following statements is!",45515,63,"282.5|140|40|80","437.5|160|80|40",NA,"Graduated High School",1579784879450,12,"female","English","impossible event","certain event","250|230|75|100","475|230|75|100","images/group2/S55-1006.jpg",NA,"<b>Blue will not</b> and <b>green will</b> touch the ground.","<b>Blue will not</b> and <b>green will not</b> touch the ground.","<b>Blue will</b> and <b>green will</b> touch the ground.","<b>Blue will</b> and <b>green will not</b> touch the ground.","0|0|100|50","Thu Jan 23 2020 12:36:56 GMT+0000 (GMT)",1579783016778,31.0445333333333,"slider_main",11,"g|none|bg|b","participant5"
512,"Rate how likely each of the following statements is!",35015,63,"292.5|140|40|80","437.5|140|40|80",NA,"Graduated High School",1579784879450,12,"female","English","impossible event","certain event","362.5|230|150|100",NA,"images/group2/S57-1007.jpg",NA,"<b>Blue will</b> and <b>green will not</b> touch the ground.","<b>Blue will not</b> and <b>green will</b> touch the ground.","<b>Blue will not</b> and <b>green will not</b> touch the ground.","<b>Blue will</b> and <b>green will</b> touch the ground.","100|0|0|0","Thu Jan 23 2020 12:36:56 GMT+0000 (GMT)",1579783016778,31.0445333333333,"slider_main",12,"b|g|none|bg","participant5"
512,"Rate how likely each of the following statements is!",43862,63,"408.5|154.33333333333331|80|40","328.5|154.33333333333331|80|40",NA,"Graduated High School",1579784879450,12,"female","English","impossible event","certain event","seesaw",NA,"images/group2/S97-1674.jpg",NA,"<b>Blue will not</b> and <b>green will</b> touch the ground.","<b>Blue will not</b> and <b>green will not</b> touch the ground.","<b>Blue will</b> and <b>green will</b> touch the ground.","<b>Blue will</b> and <b>green will not</b> touch the ground.","25|100|0|75","Thu Jan 23 2020 12:36:56 GMT+0000 (GMT)",1579783016778,31.0445333333333,"slider_main",13,"g|none|bg|b","participant5"
512,"Rate how likely each of the following statements is!",43980,63,"282.5|140|40|80","437.5|140|40|80",NA,"Graduated High School",1579784879450,12,"female","English","impossible event","certain event","362.5|230|150|100",NA,"images/group2/S22-468.jpg",NA,"<b>Blue will not</b> and <b>green will not</b> touch the ground.","<b>Blue will not</b> and <b>green will</b> touch the ground.","<b>Blue will</b> and <b>green will</b> touch the ground.","<b>Blue will</b> and <b>green will not</b> touch the ground.","0|50|100|50","Thu Jan 23 2020 12:36:56 GMT+0000 (GMT)",1579783016778,31.0445333333333,"slider_main",14,"none|g|bg|b","participant5"
512,"Rate how likely each of the following statements is!",27110,63,"287.5|140|40|80","437.5|140|40|80",NA,"Graduated High School",1579784879450,12,"female","English","impossible event","certain event","362.5|230|150|100",NA,"images/group2/S89-1642.jpg",NA,"<b>Blue will</b> and <b>green will not</b> touch the ground.","<b>Blue will not</b> and <b>green will not</b> touch the ground.","<b>Blue will</b> and <b>green will</b> touch the ground.","<b>Blue will not</b> and <b>green will</b> touch the ground.","50|0|100|50","Thu Jan 23 2020 12:36:56 GMT+0000 (GMT)",1579783016778,31.0445333333333,"slider_main",15,"b|none|bg|g","participant5"
512,"Rate how likely each of the following statements is!",55788,63,"292.5|140|40|80","432.5|140|40|80",NA,"Graduated High School",1579784879450,12,"female","English","impossible event","certain event","362.5|230|150|100",NA,"images/group2/S30-805.jpg",NA,"<b>Blue will not</b> and <b>green will not</b> touch the ground.","<b>Blue will</b> and <b>green will not</b> touch the ground.","<b>Blue will</b> and <b>green will</b> touch the ground.","<b>Blue will not</b> and <b>green will</b> touch the ground.","75|50|100|50","Thu Jan 23 2020 12:36:56 GMT+0000 (GMT)",1579783016778,31.0445333333333,"slider_main",16,"none|b|bg|g","participant5"
512,"Rate how likely each of the following statements is!",47816,63,"282.5|140|40|80","442.5|140|40|80",NA,"Graduated High School",1579784879450,12,"female","English","impossible event","certain event","362.5|230|150|100",NA,"images/group2/S7-130.jpg",NA,"<b>Blue will not</b> and <b>green will</b> touch the ground.","<b>Blue will</b> and <b>green will</b> touch the ground.","<b>Blue will not</b> and <b>green will not</b> touch the ground.","<b>Blue will</b> and <b>green will not</b> touch the ground.","50|100|0|50","Thu Jan 23 2020 12:36:56 GMT+0000 (GMT)",1579783016778,31.0445333333333,"slider_main",17,"g|bg|none|b","participant5"
512,"Rate how likely each of the following statements is!",58187,63,"335|160|80|40","375|100|40|80",NA,"Graduated High School",1579784879450,12,"female","English","impossible event","certain event","362.5|230|75|100",NA,"images/group2/S59-1007.jpg",NA,"<b>Blue will</b> and <b>green will not</b> touch the ground.","<b>Blue will not</b> and <b>green will not</b> touch the ground.","<b>Blue will not</b> and <b>green will</b> touch the ground.","<b>Blue will</b> and <b>green will</b> touch the ground.","100|25|0|50","Thu Jan 23 2020 12:36:56 GMT+0000 (GMT)",1579783016778,31.0445333333333,"slider_main",18,"b|none|g|bg","participant5"
512,"Rate how likely each of the following statements is!",68296,63,"292.5|40|40|80","437.5|140|40|80",NA,"Graduated High School",1579784879450,12,"female","English","impossible event","certain event","250|180|75|200","475|230|75|100","images/group2/S20-468.jpg",NA,"<b>Blue will</b> and <b>green will not</b> touch the ground.","<b>Blue will</b> and <b>green will</b> touch the ground.","<b>Blue will not</b> and <b>green will not</b> touch the ground.","<b>Blue will not</b> and <b>green will</b> touch the ground.","75|100|0|0","Thu Jan 23 2020 12:36:56 GMT+0000 (GMT)",1579783016778,31.0445333333333,"slider_main",19,"b|bg|none|g","participant5"
512,"Rate how likely each of the following statements is!",49558,63,"370|100|40|80","335|160|80|40",NA,"Graduated High School",1579784879450,12,"female","English","impossible event","certain event","362.5|230|75|100",NA,"images/group2/S44-806.jpg",NA,"<b>Blue will</b> and <b>green will</b> touch the ground.","<b>Blue will not</b> and <b>green will</b> touch the ground.","<b>Blue will not</b> and <b>green will not</b> touch the ground.","<b>Blue will</b> and <b>green will not</b> touch the ground.","0|100|75|25","Thu Jan 23 2020 12:36:56 GMT+0000 (GMT)",1579783016778,31.0445333333333,"slider_main",20,"bg|g|none|b","participant5"
512,"Rate how likely each of the following statements is!",38254,63,"302.5|160|80|40","417.5|40|40|80",NA,"Graduated High School",1579784879450,12,"female","English","impossible event","certain event","275|230|75|100","450|180|75|200","images/group2/S34-806.jpg",NA,"<b>Blue will not</b> and <b>green will</b> touch the ground.","<b>Blue will</b> and <b>green will</b> touch the ground.","<b>Blue will</b> and <b>green will not</b> touch the ground.","<b>Blue will not</b> and <b>green will not</b> touch the ground.","25|75|100|25","Thu Jan 23 2020 12:36:56 GMT+0000 (GMT)",1579783016778,31.0445333333333,"slider_main",21,"g|bg|b|none","participant5"
512,"Rate how likely each of the following statements is!",49030,63,"250|160|80|40","400|40|40|80",NA,"Graduated High School",1579784879450,12,"female","English","impossible event","certain event","287.5|230|75|100","437.5|180|75|200","images/group2/S93-1674.jpg",NA,"<b>Blue will not</b> and <b>green will not</b> touch the ground.","<b>Blue will not</b> and <b>green will</b> touch the ground.","<b>Blue will</b> and <b>green will not</b> touch the ground.","<b>Blue will</b> and <b>green will</b> touch the ground.","75|25|100|73","Thu Jan 23 2020 12:36:56 GMT+0000 (GMT)",1579783016778,31.0445333333333,"slider_main",22,"none|g|b|bg","participant5"
512,"Rate how likely each of the following statements is!",47361,63,"292.5|40|40|80","437.5|40|40|80",NA,"Graduated High School",1579784879450,12,"female","English","impossible event","certain event","250|180|75|200","475|180|75|200","images/group2/S15-443.jpg",NA,"<b>Blue will</b> and <b>green will</b> touch the ground.","<b>Blue will</b> and <b>green will not</b> touch the ground.","<b>Blue will not</b> and <b>green will not</b> touch the ground.","<b>Blue will not</b> and <b>green will</b> touch the ground.","100|75|0|50","Thu Jan 23 2020 12:36:56 GMT+0000 (GMT)",1579783016778,31.0445333333333,"slider_main",23,"bg|b|none|g","participant5"
512,"Rate how likely each of the following statements is!",64906,63,"362.5|138.33333333333331|80|40","362.5|178.33333333333331|80|40",NA,"Graduated High School",1579784879450,12,"female","English","impossible event","certain event","seesaw",NA,"images/group2/S42-806.jpg",NA,"<b>Blue will</b> and <b>green will not</b> touch the ground.","<b>Blue will not</b> and <b>green will</b> touch the ground.","<b>Blue will</b> and <b>green will</b> touch the ground.","<b>Blue will not</b> and <b>green will not</b> touch the ground.","50|50|0|100","Thu Jan 23 2020 12:36:56 GMT+0000 (GMT)",1579783016778,31.0445333333333,"slider_main",24,"b|g|bg|none","participant5"
512,"Rate how likely each of the following statements is!",72090,63,"292.5|40|40|80","442.5|140|40|80",NA,"Graduated High School",1579784879450,12,"female","English","impossible event","certain event","250|180|75|200","475|230|75|100","images/group2/S10-203.jpg",NA,"<b>Blue will</b> and <b>green will not</b> touch the ground.","<b>Blue will not</b> and <b>green will not</b> touch the ground.","<b>Blue will not</b> and <b>green will</b> touch the ground.","<b>Blue will</b> and <b>green will</b> touch the ground.","25|50|85|75","Thu Jan 23 2020 12:36:56 GMT+0000 (GMT)",1579783016778,31.0445333333333,"slider_main",25,"b|none|g|bg","participant5"
511,NA,129788,27,"292.5|140|40|80","447.5|160|80|40",NA,"Graduated College",1579784615770,12,"female","English",NA,NA,"262.5|230|50|100","462.5|230|50|100",NA,NA,NA,NA,NA,NA,"31|31|81|9","Thu Jan 23 2020 12:49:47 GMT+0000 (GMT Standard Time)",1579783787169,13.8100166666667,"train1",1,"g|g|none|g","participant6"
511,NA,33124,27,"292.5|40|40|80","442.5|140|40|80",NA,"Graduated College",1579784615770,12,"female","English",NA,NA,"212.5|180|150|200","512.5|230|150|100",NA,NA,NA,NA,NA,NA,"68|20|34|67","Thu Jan 23 2020 12:49:47 GMT+0000 (GMT Standard Time)",1579783787169,13.8100166666667,"train2",2,"bg|bg|none|bg","participant6"
511,NA,38484,27,"303.8699610326893|60|40|80","272.507483800931|140|40|80",NA,"Graduated College",1579784615770,12,"female","English",NA,NA,"362.5|230|150|100",NA,NA,NA,NA,NA,NA,NA,"37|72|91|62","Thu Jan 23 2020 12:49:47 GMT+0000 (GMT Standard Time)",1579783787169,13.8100166666667,"train3",3,"none|bg|bg|g","participant6"
511,NA,25760,27,"363.91193075034977|118.33333333333331|40|80","359.4660965135056|178.33333333333331|80|40",NA,"Graduated College",1579784615770,12,"female","English",NA,NA,"seesaw",NA,NA,NA,NA,NA,NA,NA,"16|40|40|67","Thu Jan 23 2020 12:49:47 GMT+0000 (GMT Standard Time)",1579783787169,13.8100166666667,"train4",4,"g|none|g|b","participant6"
511,"Rate how likely each of the following statements is!",25918,27,"282.5|140|40|80","437.5|160|80|40",NA,"Graduated College",1579784615770,12,"female","English","impossible event","certain event","250|230|75|100","475|230|75|100","images/group2/S55-1006.jpg",NA,"<b>Blue will not</b> and <b>green will not</b> touch the ground.","<b>Blue will</b> and <b>green will</b> touch the ground.","<b>Blue will</b> and <b>green will not</b> touch the ground.","<b>Blue will not</b> and <b>green will</b> touch the ground.","12|71|22|28","Thu Jan 23 2020 12:49:47 GMT+0000 (GMT Standard Time)",1579783787169,13.8100166666667,"slider_main",1,"none|bg|b|g","participant6"
511,"Rate how likely each of the following statements is!",15355,27,"370|100|40|80","335|160|80|40",NA,"Graduated College",1579784615770,12,"female","English","impossible event","certain event","362.5|230|75|100",NA,"images/group2/S44-806.jpg",NA,"<b>Blue will not</b> and <b>green will</b> touch the ground.","<b>Blue will</b> and <b>green will</b> touch the ground.","<b>Blue will not</b> and <b>green will not</b> touch the ground.","<b>Blue will</b> and <b>green will not</b> touch the ground.","19|61|28|82","Thu Jan 23 2020 12:49:47 GMT+0000 (GMT Standard Time)",1579783787169,13.8100166666667,"slider_main",2,"g|bg|none|b","participant6"
511,"Rate how likely each of the following statements is!",25171,27,"250|160|80|40","400|40|40|80",NA,"Graduated College",1579784615770,12,"female","English","impossible event","certain event","287.5|230|75|100","437.5|180|75|200","images/group2/S93-1674.jpg",NA,"<b>Blue will not</b> and <b>green will</b> touch the ground.","<b>Blue will</b> and <b>green will not</b> touch the ground.","<b>Blue will not</b> and <b>green will not</b> touch the ground.","<b>Blue will</b> and <b>green will</b> touch the ground.","71|8|10|91","Thu Jan 23 2020 12:49:47 GMT+0000 (GMT Standard Time)",1579783787169,13.8100166666667,"slider_main",3,"g|b|none|bg","participant6"
511,"Rate how likely each of the following statements is!",20771,27,"292.5|140|40|80","432.5|140|40|80",NA,"Graduated College",1579784615770,12,"female","English","impossible event","certain event","362.5|230|150|100",NA,"images/group2/S30-805.jpg",NA,"<b>Blue will</b> and <b>green will not</b> touch the ground.","<b>Blue will</b> and <b>green will</b> touch the ground.","<b>Blue will not</b> and <b>green will</b> touch the ground.","<b>Blue will not</b> and <b>green will not</b> touch the ground.","40|78|94|24","Thu Jan 23 2020 12:49:47 GMT+0000 (GMT Standard Time)",1579783787169,13.8100166666667,"slider_main",4,"b|bg|g|none","participant6"
511,"Rate how likely each of the following statements is!",17373,27,"292.5|40|40|80","442.5|140|40|80",NA,"Graduated College",1579784615770,12,"female","English","impossible event","certain event","250|180|75|200","475|230|75|100","images/group2/S10-203.jpg",NA,"<b>Blue will not</b> and <b>green will</b> touch the ground.","<b>Blue will</b> and <b>green will not</b> touch the ground.","<b>Blue will not</b> and <b>green will not</b> touch the ground.","<b>Blue will</b> and <b>green will</b> touch the ground.","29|65|40|80","Thu Jan 23 2020 12:49:47 GMT+0000 (GMT Standard Time)",1579783787169,13.8100166666667,"slider_main",5,"g|b|none|bg","participant6"
511,"Rate how likely each of the following statements is!",8419,27,"282.5|140|40|80","442.5|140|40|80",NA,"Graduated College",1579784615770,12,"female","English","impossible event","certain event","362.5|230|150|100",NA,"images/group2/S7-130.jpg",NA,"<b>Blue will not</b> and <b>green will</b> touch the ground.","<b>Blue will not</b> and <b>green will not</b> touch the ground.","<b>Blue will</b> and <b>green will not</b> touch the ground.","<b>Blue will</b> and <b>green will</b> touch the ground.","2|33|32|97","Thu Jan 23 2020 12:49:47 GMT+0000 (GMT Standard Time)",1579783787169,13.8100166666667,"slider_main",6,"g|none|b|bg","participant6"
511,"Rate how likely each of the following statements is!",16680,27,"377.5|120|80|40","347.5|160|80|40",NA,"Graduated College",1579784615770,12,"female","English","impossible event","certain event","362.5|230|150|100",NA,"images/group2/S30-805-dep.jpg",NA,"<b>Blue will</b> and <b>green will</b> touch the ground.","<b>Blue will not</b> and <b>green will</b> touch the ground.","<b>Blue will</b> and <b>green will not</b> touch the ground.","<b>Blue will not</b> and <b>green will not</b> touch the ground.","33|29|65|54","Thu Jan 23 2020 12:49:47 GMT+0000 (GMT Standard Time)",1579783787169,13.8100166666667,"slider_main",7,"bg|g|b|none","participant6"
511,"Rate how likely each of the following statements is!",60160,27,"262.5|178.33333333333331|80|40","462.5|178.33333333333331|80|40",NA,"Graduated College",1579784615770,12,"female","English","impossible event","certain event","seesaw",NA,"images/group2/S89-1642-dep.jpg",NA,"<b>Blue will</b> and <b>green will</b> touch the ground.","<b>Blue will not</b> and <b>green will not</b> touch the ground.","<b>Blue will</b> and <b>green will not</b> touch the ground.","<b>Blue will not</b> and <b>green will</b> touch the ground.","6|3|39|65","Thu Jan 23 2020 12:49:47 GMT+0000 (GMT Standard Time)",1579783787169,13.8100166666667,"slider_main",8,"bg|none|b|g","participant6"
511,"Rate how likely each of the following statements is!",19923,27,"292.5|40|40|80","437.5|40|40|80",NA,"Graduated College",1579784615770,12,"female","English","impossible event","certain event","250|180|75|200","475|180|75|200","images/group2/S15-443.jpg",NA,"<b>Blue will</b> and <b>green will</b> touch the ground.","<b>Blue will not</b> and <b>green will not</b> touch the ground.","<b>Blue will</b> and <b>green will not</b> touch the ground.","<b>Blue will not</b> and <b>green will</b> touch the ground.","64|21|67|46","Thu Jan 23 2020 12:49:47 GMT+0000 (GMT Standard Time)",1579783787169,13.8100166666667,"slider_main",9,"bg|none|b|g","participant6"
511,"Rate how likely each of the following statements is!",19370,27,"302.5|160|80|40","417.5|40|40|80",NA,"Graduated College",1579784615770,12,"female","English","impossible event","certain event","275|230|75|100","450|180|75|200","images/group2/S34-806.jpg",NA,"<b>Blue will</b> and <b>green will</b> touch the ground.","<b>Blue will</b> and <b>green will not</b> touch the ground.","<b>Blue will not</b> and <b>green will not</b> touch the ground.","<b>Blue will not</b> and <b>green will</b> touch the ground.","37|52|57|84","Thu Jan 23 2020 12:49:47 GMT+0000 (GMT Standard Time)",1579783787169,13.8100166666667,"slider_main",10,"bg|b|none|g","participant6"
511,"Rate how likely each of the following statements is!",14339,27,"362.5|138.33333333333331|80|40","362.5|178.33333333333331|80|40",NA,"Graduated College",1579784615770,12,"female","English","impossible event","certain event","seesaw",NA,"images/group2/S42-806.jpg",NA,"<b>Blue will not</b> and <b>green will</b> touch the ground.","<b>Blue will</b> and <b>green will not</b> touch the ground.","<b>Blue will not</b> and <b>green will not</b> touch the ground.","<b>Blue will</b> and <b>green will</b> touch the ground.","0|5|3|98","Thu Jan 23 2020 12:49:47 GMT+0000 (GMT Standard Time)",1579783787169,13.8100166666667,"slider_main",11,"g|b|none|bg","participant6"
511,"Rate how likely each of the following statements is!",12187,27,"320|140|40|80","400|140|40|80",NA,"Graduated College",1579784615770,12,"female","English","impossible event","certain event","300|230|50|100","425|230|50|100","images/group2/S63-1039.jpg",NA,"<b>Blue will not</b> and <b>green will</b> touch the ground.","<b>Blue will</b> and <b>green will</b> touch the ground.","<b>Blue will</b> and <b>green will not</b> touch the ground.","<b>Blue will not</b> and <b>green will not</b> touch the ground.","51|72|37|20","Thu Jan 23 2020 12:49:47 GMT+0000 (GMT Standard Time)",1579783787169,13.8100166666667,"slider_main",12,"g|bg|b|none","participant6"
